Data from FLMS187131_14-11-12-722.txt Node
Date: Mon Dec 23 14:11:12 MSK 2024
User: FemtoLab1
Spectrometer: FLMS18713
Trigger mode: 0
Integration Time (sec): 1,141200E-1
Scans to average: 1
Electric dark correction enabled: true
Nonlinearity correction enabled: false
Boxcar width: 0
XAxis mode: Wavelengths
Number of Pixels in Spectrum: 2048
>>>>>Begin Spectral Data<<<<<
190,252	-63,32
190,715	-63,32
191,177	-63,32
191,64	-112,73
192,102	-105,32
192,565	-60,85
193,027	-78,14
193,49	-46,02
193,952	-85,55
194,415	-73,2
194,877	-60,85
195,339	-78,14
195,802	10,81
196,264	10,81
196,726	-36,14
197,188	33,05
197,65	55,29
198,112	20,69
198,574	60,23
199,036	154,12
199,498	173,89
199,96	146,71
200,421	178,83
200,883	154,12
201,345	285,08
201,807	294,96
202,268	225,78
202,73	302,37
203,191	319,67
203,653	275,19
204,114	349,32
204,576	329,55
205,037	398,74
205,498	351,79
205,96	438,27
206,421	336,97
206,882	351,79
207,343	450,63
207,804	477,81
208,265	361,67
208,726	391,32
209,187	443,21
209,648	378,97
210,109	455,57
210,57	418,5
211,031	344,38
211,492	374,03
211,952	376,5
212,413	401,21
212,874	401,21
213,334	369,09
213,795	443,21
214,255	425,92
214,716	443,21
215,176	418,5
215,636	416,03
216,097	472,86
216,557	420,98
217,017	472,86
217,477	445,68
217,938	361,67
218,398	383,91
218,858	403,68
219,318	339,44
219,778	356,73
220,238	418,5
220,698	378,97
221,157	359,2
221,617	376,5
222,077	341,91
222,537	450,63
222,996	351,79
223,456	401,21
223,915	361,67
224,375	369,09
224,834	408,62
225,294	388,85
225,753	393,8
226,213	374,03
226,672	356,73
227,131	425,92
227,59	386,38
228,05	403,68
228,509	383,91
228,968	356,73
229,427	396,27
229,886	396,27
230,345	388,85
230,804	433,33
231,263	381,44
231,721	381,44
232,18	356,73
232,639	396,27
233,098	378,97
233,556	383,91
234,015	364,15
234,473	356,73
234,932	356,73
235,39	416,03
235,849	339,44
236,307	339,44
236,765	361,67
237,224	445,68
237,682	366,62
238,14	416,03
238,598	416,03
239,056	374,03
239,514	406,15
239,972	425,92
240,43	351,79
240,888	386,38
241,346	428,39
241,804	396,27
242,262	366,62
242,72	428,39
243,177	435,8
243,635	346,85
244,093	465,45
244,55	401,21
245,008	425,92
245,465	435,8
245,923	401,21
246,38	361,67
246,837	398,74
247,295	430,86
247,752	411,09
248,209	438,27
248,666	403,68
249,123	346,85
249,58	393,8
250,037	383,91
250,494	411,09
250,951	453,1
251,408	480,28
251,865	359,2
252,322	393,8
252,779	433,33
253,235	403,68
253,692	433,33
254,149	381,44
254,605	448,15
255,062	413,56
255,518	443,21
255,975	374,03
256,431	388,85
256,887	371,56
257,344	344,38
257,8	423,45
258,256	433,33
258,712	450,63
259,168	408,62
259,625	369,09
260,081	443,21
260,537	378,97
260,992	433,33
261,448	361,67
261,904	406,15
262,36	433,33
262,816	371,56
263,272	428,39
263,727	453,1
264,183	450,63
264,638	398,74
265,094	433,33
265,549	420,98
266,005	428,39
266,46	388,85
266,916	391,32
267,371	462,98
267,826	349,32
268,281	371,56
268,737	391,32
269,192	408,62
269,647	408,62
270,102	430,86
270,557	393,8
271,012	467,92
271,467	381,44
271,921	411,09
272,376	423,45
272,831	393,8
273,286	500,04
273,74	423,45
274,195	403,68
274,649	423,45
275,104	413,56
275,558	364,15
276,013	453,1
276,467	418,5
276,922	443,21
277,376	438,27
277,83	383,91
278,284	383,91
278,739	381,44
279,193	393,8
279,647	445,68
280,101	443,21
280,555	467,92
281,009	403,68
281,462	393,8
281,916	440,74
282,37	438,27
282,824	430,86
283,278	443,21
283,731	383,91
284,185	433,33
284,638	391,32
285,092	403,68
285,545	443,21
285,999	433,33
286,452	408,62
286,905	423,45
287,359	339,44
287,812	408,62
288,265	413,56
288,718	425,92
289,171	423,45
289,624	336,97
290,077	430,86
290,53	467,92
290,983	425,92
291,436	383,91
291,889	425,92
292,342	378,97
292,794	450,63
293,247	440,74
293,7	408,62
294,152	381,44
294,605	391,32
295,057	383,91
295,51	413,56
295,962	411,09
296,414	458,04
296,867	443,21
297,319	388,85
297,771	443,21
298,223	364,15
298,675	401,21
299,128	458,04
299,58	435,8
300,032	398,74
300,483	458,04
300,935	383,91
301,387	401,21
301,839	420,98
302,291	480,28
302,742	440,74
303,194	349,32
303,646	364,15
304,097	423,45
304,549	383,91
305	418,5
305,451	381,44
305,903	472,86
306,354	408,62
306,805	383,91
307,257	425,92
307,708	388,85
308,159	403,68
308,61	406,15
309,061	408,62
309,512	346,85
309,963	386,38
310,414	423,45
310,865	435,8
311,315	455,57
311,766	445,68
312,217	391,32
312,668	443,21
313,118	416,03
313,569	361,67
314,019	440,74
314,47	467,92
314,92	418,5
315,37	411,09
315,821	482,75
316,271	413,56
316,721	470,39
317,171	445,68
317,622	354,26
318,072	433,33
318,522	462,98
318,972	403,68
319,422	435,8
319,872	462,98
320,321	448,15
320,771	453,1
321,221	433,33
321,671	406,15
322,12	418,5
322,57	425,92
323,019	443,21
323,469	453,1
323,918	430,86
324,368	430,86
324,817	406,15
325,267	393,8
325,716	378,97
326,165	428,39
326,614	393,8
327,063	445,68
327,512	423,45
327,961	371,56
328,41	485,22
328,859	462,98
329,308	366,62
329,757	413,56
330,206	398,74
330,655	455,57
331,103	462,98
331,552	381,44
332,001	418,5
332,449	336,97
332,898	435,8
333,346	438,27
333,794	428,39
334,243	391,32
334,691	416,03
335,139	420,98
335,588	416,03
336,036	411,09
336,484	482,75
336,932	401,21
337,38	438,27
337,828	450,63
338,276	443,21
338,724	472,86
339,172	408,62
339,619	475,33
340,067	388,85
340,515	403,68
340,962	413,56
341,41	455,57
341,858	450,63
342,305	416,03
342,753	378,97
343,2	423,45
343,647	411,09
344,095	398,74
344,542	411,09
344,989	455,57
345,436	438,27
345,883	448,15
346,33	420,98
346,777	418,5
347,224	416,03
347,671	401,21
348,118	430,86
348,565	428,39
349,012	495,1
349,458	396,27
349,905	388,85
350,352	418,5
350,798	396,27
351,245	450,63
351,691	430,86
352,138	485,22
352,584	391,32
353,03	450,63
353,477	448,15
353,923	374,03
354,369	430,86
354,815	388,85
355,261	413,56
355,707	504,98
356,153	369,09
356,599	482,75
357,045	381,44
357,491	462,98
357,937	445,68
358,382	401,21
358,828	349,32
359,274	418,5
359,719	383,91
360,165	470,39
360,61	393,8
361,056	455,57
361,501	504,98
361,947	433,33
362,392	472,86
362,837	413,56
363,282	420,98
363,727	411,09
364,173	393,8
364,618	413,56
365,063	462,98
365,508	477,81
365,952	443,21
366,397	492,63
366,842	428,39
367,287	398,74
367,732	445,68
368,176	403,68
368,621	438,27
369,065	430,86
369,51	490,16
369,954	425,92
370,399	398,74
370,843	416,03
371,287	398,74
371,732	443,21
372,176	465,45
372,62	465,45
373,064	371,56
373,508	371,56
373,952	364,15
374,396	430,86
374,84	411,09
375,284	398,74
375,728	393,8
376,172	423,45
376,615	383,91
377,059	438,27
377,503	495,1
377,946	418,5
378,39	492,63
378,833	428,39
379,277	391,32
379,72	430,86
380,163	366,62
380,607	418,5
381,05	480,28
381,493	418,5
381,936	374,03
382,379	420,98
382,822	401,21
383,265	408,62
383,708	406,15
384,151	433,33
384,594	383,91
385,037	418,5
385,479	351,79
385,922	460,51
386,365	418,5
386,807	448,15
387,25	396,27
387,692	349,32
388,135	408,62
388,577	411,09
389,019	396,27
389,461	430,86
389,904	460,51
390,346	435,8
390,788	462,98
391,23	460,51
391,672	448,15
392,114	433,33
392,556	416,03
392,998	448,15
393,44	418,5
393,881	351,79
394,323	378,97
394,765	381,44
395,206	401,21
395,648	480,28
396,09	453,1
396,531	416,03
396,972	458,04
397,414	374,03
397,855	403,68
398,296	428,39
398,738	460,51
399,179	425,92
399,62	433,33
400,061	443,21
400,502	460,51
400,943	443,21
401,384	450,63
401,825	423,45
402,265	438,27
402,706	482,75
403,147	487,69
403,588	339,44
404,028	383,91
404,469	406,15
404,909	433,33
405,35	416,03
405,79	381,44
406,23	448,15
406,671	475,33
407,111	433,33
407,551	396,27
407,991	403,68
408,431	450,63
408,871	366,62
409,311	448,15
409,751	401,21
410,191	408,62
410,631	492,63
411,071	361,67
411,511	430,86
411,95	408,62
412,39	401,21
412,83	388,85
413,269	413,56
413,709	423,45
414,148	460,51
414,587	448,15
415,027	396,27
415,466	388,85
415,905	477,81
416,345	433,33
416,784	430,86
417,223	391,32
417,662	485,22
418,101	391,32
418,54	453,1
418,979	369,09
419,417	443,21
419,856	430,86
420,295	418,5
420,734	482,75
421,172	416,03
421,611	428,39
422,049	472,86
422,488	465,45
422,926	428,39
423,364	440,74
423,803	425,92
424,241	458,04
424,679	425,92
425,117	425,92
425,555	383,91
425,994	445,68
426,432	465,45
426,87	504,98
427,307	514,87
427,745	482,75
428,183	519,81
428,621	440,74
429,058	460,51
429,496	500,04
429,934	482,75
430,371	472,86
430,809	497,57
431,246	413,56
431,684	462,98
432,121	482,75
432,558	502,51
432,995	500,04
433,433	542,05
433,87	462,98
434,307	566,76
434,744	502,51
435,181	497,57
435,618	571,7
436,055	670,53
436,491	534,64
436,928	581,58
437,365	613,7
437,801	487,69
438,238	566,76
438,675	539,58
439,111	542,05
439,548	500,04
439,984	539,58
440,42	603,82
440,857	502,51
441,293	542,05
441,729	586,52
442,165	532,16
442,601	598,88
443,037	591,47
443,473	581,58
443,909	633,47
444,345	621,12
444,781	556,87
445,217	596,41
445,652	601,35
446,088	579,11
446,524	561,82
446,959	534,64
447,395	588,99
447,83	596,41
448,266	527,22
448,701	616,17
449,136	673
449,572	591,47
450,007	643,35
450,442	638,41
450,877	618,65
451,312	618,65
451,747	571,7
452,182	559,34
452,617	626,06
453,052	571,7
453,486	606,29
453,921	551,93
454,356	556,87
454,79	579,11
455,225	551,93
455,66	603,82
456,094	596,41
456,528	554,4
456,963	621,12
457,397	556,87
457,831	579,11
458,265	593,94
458,7	490,16
459,134	556,87
459,568	490,16
460,002	546,99
460,436	529,69
460,87	537,11
461,303	549,46
461,737	532,16
462,171	534,64
462,605	453,1
463,038	544,52
463,472	556,87
463,905	566,76
464,339	514,87
464,772	551,93
465,205	529,69
465,639	514,87
466,072	544,52
466,505	524,75
466,938	561,82
467,371	517,34
467,804	534,64
468,237	564,29
468,67	475,33
469,103	477,81
469,536	465,45
469,969	584,05
470,402	485,22
470,834	445,68
471,267	450,63
471,699	460,51
472,132	480,28
472,564	514,87
472,997	529,69
473,429	596,41
473,861	512,4
474,294	448,15
474,726	475,33
475,158	443,21
475,59	455,57
476,022	497,57
476,454	495,1
476,886	529,69
477,318	482,75
477,75	465,45
478,181	480,28
478,613	509,93
479,045	512,4
479,476	472,86
479,908	450,63
480,339	512,4
480,771	507,46
481,202	517,34
481,634	467,92
482,065	507,46
482,496	502,51
482,927	495,1
483,358	475,33
483,789	544,52
484,22	549,46
484,651	532,16
485,082	559,34
485,513	549,46
485,944	465,45
486,375	517,34
486,805	497,57
487,236	542,05
487,667	512,4
488,097	509,93
488,527	524,75
488,958	509,93
489,388	542,05
489,819	532,16
490,249	537,11
490,679	554,4
491,109	576,64
491,539	532,16
491,969	556,87
492,399	500,04
492,829	588,99
493,259	485,22
493,689	586,52
494,119	514,87
494,548	566,76
494,978	482,75
495,408	603,82
495,837	514,87
496,267	534,64
496,696	574,17
497,126	616,17
497,555	613,7
497,984	584,05
498,413	549,46
498,843	598,88
499,272	534,64
499,701	643,35
500,13	613,7
500,559	586,52
500,988	606,29
501,417	598,88
501,845	643,35
502,274	618,65
502,703	588,99
503,131	653,24
503,56	635,94
503,988	618,65
504,417	596,41
504,845	611,23
505,274	687,83
505,702	643,35
506,13	670,53
506,558	608,76
506,987	631
507,415	591,47
507,843	702,65
508,271	645,82
508,699	700,18
509,126	734,78
509,554	675,48
509,982	757,01
510,41	648,3
510,837	635,94
511,265	737,25
511,693	692,77
512,12	729,83
512,547	670,53
512,975	801,49
513,402	769,37
513,829	776,78
514,257	744,66
514,684	808,9
515,111	766,9
515,538	739,72
515,965	729,83
516,392	811,37
516,819	779,25
517,246	863,26
517,672	784,19
518,099	808,9
518,526	826,2
518,952	848,44
519,379	796,55
519,805	831,14
520,232	828,67
520,658	868,2
521,085	853,38
521,511	863,26
521,937	875,62
522,363	848,44
522,789	917,62
523,215	895,38
523,641	885,5
524,067	907,74
524,493	897,85
524,919	843,49
525,345	917,62
525,771	1031,28
526,196	917,62
526,622	902,8
527,047	925,03
527,473	1026,34
527,898	959,63
528,324	981,86
528,749	984,33
529,174	1011,51
529,6	1095,52
530,025	1162,24
530,45	1201,77
530,875	1169,65
531,3	1201,77
531,725	1317,9
532,15	1367,32
532,575	1401,91
532,999	1537,81
533,424	1589,7
533,849	1705,83
534,273	1779,96
534,698	2054,22
535,122	2128,35
535,547	2217,3
535,971	2533,57
536,396	2471,8
536,82	2568,17
537,244	2565,69
537,668	2639,82
538,092	2506,39
538,517	2625
538,941	2938,8
539,364	3121,64
539,788	3806,07
540,212	4628,87
540,636	6027,39
541,06	7532,15
541,483	9447,08
541,907	11658,51
542,331	13738,99
542,754	16489,07
543,178	18576,96
543,601	21163,97
544,024	23145,61
544,448	25263,15
544,871	27551,18
545,294	29792,26
545,717	31544,11
546,14	33577,64
546,563	35443,15
546,986	37110,99
547,409	38393,37
547,832	38603,4
548,255	38927,08
548,677	38778,83
549,1	37283,95
549,522	35588,93
549,945	32841,32
550,368	29599,53
550,79	26639,42
551,212	23162,9
551,635	20971,24
552,057	18673,32
552,479	17413,18
552,901	17124,09
553,323	17269,87
553,745	18623,91
554,167	20726,62
554,589	23150,55
555,011	26333,03
555,433	29424,1
555,855	32690,59
556,277	36782,36
556,698	38605,87
557,12	41304,06
557,541	43532,79
557,963	44948,6
558,384	46040,73
558,806	46280,4
559,227	46270,52
559,648	45694,81
560,069	44943,66
560,49	44254,29
560,912	42299,82
561,333	40738,23
561,754	38936,96
562,174	37820,13
562,595	35697,65
563,016	33953,21
563,437	32016,05
563,858	30716,37
564,278	29372,21
564,699	28028,05
565,119	26814,85
565,54	25480,58
565,96	24410,69
566,38	23407,52
566,801	22522,95
567,221	21141,73
567,641	20010,07
568,061	19142,79
568,481	18389,17
568,901	17373,64
569,321	16753,45
569,741	15624,27
570,161	14571,67
570,581	13771,11
571,001	13034,79
571,42	12251,52
571,84	11631,33
572,259	10675,1
572,679	9983,26
573,098	9377,89
573,518	8947,96
573,937	8315,42
574,356	7739,7
574,775	7314,71
575,195	6847,72
575,614	6370,84
576,033	6029,86
576,452	5515,92
576,871	5249,06
577,29	4989,62
577,708	4688,18
578,127	4453,44
578,546	4250,83
578,964	4028,45
579,383	3749,24
579,801	3554,04
580,22	3269,89
580,638	3193,3
581,057	2988,21
581,475	2817,72
581,893	2642,29
582,311	2518,75
582,73	2476,74
583,148	2200
583,566	2531,1
583,984	2031,99
584,401	1930,68
584,819	1802,19
585,237	1787,37
585,655	1681,12
586,072	1792,31
586,49	1681,12
586,908	1597,11
587,325	1495,81
587,742	1493,33
588,16	1414,27
588,577	1345,08
588,994	1258,6
589,412	1330,26
589,829	1182
590,246	1275,9
590,663	1147,41
591,08	1221,54
591,497	1169,65
591,914	1120,23
592,33	1097,99
592,747	1088,11
593,164	1144,94
593,58	1107,88
593,997	1053,52
594,413	1083,17
594,83	1053,52
595,246	1164,71
595,663	1088,11
596,079	1199,3
596,495	1273,43
596,911	1303,08
597,327	1298,14
597,743	1350,02
598,159	1320,37
598,575	1308,02
598,991	1268,49
599,407	1369,79
599,823	1337,67
600,238	1392,03
600,654	1587,23
601,07	1438,98
601,485	1485,92
601,901	1567,46
602,316	1574,87
602,731	1569,93
603,147	1495,81
603,562	1389,56
603,977	1436,5
604,392	1310,49
604,807	1308,02
605,222	1246,25
605,637	1243,78
606,052	1117,76
606,467	1243,78
606,882	1172,12
607,296	1261,07
607,711	1184,48
608,125	1236,36
608,54	1283,31
608,954	1283,31
609,369	1337,67
609,783	1372,26
610,197	1404,38
610,612	1377,2
611,026	1312,96
611,44	1266,01
611,854	1219,07
612,268	1256,13
612,682	1147,41
613,096	1021,4
613,51	1028,81
613,923	989,28
614,337	974,45
614,751	1083,17
615,164	964,57
615,578	1068,34
615,991	1023,87
616,405	1159,77
616,818	1214,13
617,231	1268,49
617,645	1350,02
618,058	1372,26
618,471	1438,98
618,884	1441,45
619,297	1453,8
619,71	1401,91
620,123	1461,21
620,536	1382,15
620,948	1243,78
621,361	1226,48
621,774	1194,36
622,186	1075,76
622,599	1046,11
623,011	1075,76
623,424	979,39
623,836	1001,63
624,248	922,56
624,661	942,33
625,073	937,39
625,485	939,86
625,897	920,09
626,309	850,91
626,721	880,56
627,133	878,09
627,545	860,79
627,956	845,97
628,368	900,32
628,78	816,32
629,191	878,09
629,603	821,26
630,014	848,44
630,426	761,96
630,837	838,55
631,248	799,02
631,66	791,61
632,071	897,85
632,482	781,72
632,893	863,26
633,304	902,8
633,715	865,73
634,126	754,54
634,536	766,9
634,947	786,66
635,358	801,49
635,769	749,6
636,179	722,42
636,59	729,83
637	764,43
637,41	781,72
637,821	724,89
638,231	747,13
638,641	749,6
639,051	707,6
639,462	791,61
639,872	732,31
640,282	660,65
640,691	631
641,101	680,42
641,511	692,77
641,921	618,65
642,331	665,59
642,74	645,82
643,15	551,93
643,559	623,59
643,969	640,88
644,378	717,48
644,787	539,58
645,197	537,11
645,606	534,64
646,015	635,94
646,424	581,58
646,833	527,22
647,242	613,7
647,651	564,29
648,06	544,52
648,469	596,41
648,877	633,47
649,286	569,23
649,694	554,4
650,103	564,29
650,512	653,24
650,92	638,41
651,328	655,71
651,737	707,6
652,145	598,88
652,553	628,53
652,961	675,48
653,369	648,3
653,777	724,89
654,185	744,66
654,593	645,82
655,001	692,77
655,409	685,36
655,816	727,36
656,224	668,06
656,631	623,59
657,039	717,48
657,446	697,71
657,854	660,65
658,261	675,48
658,668	717,48
659,076	631
659,483	635,94
659,89	665,59
660,297	638,41
660,704	616,17
661,111	670,53
661,518	643,35
661,924	692,77
662,331	591,47
662,738	643,35
663,144	621,12
663,551	613,7
663,957	628,53
664,364	512,4
664,77	574,17
665,177	556,87
665,583	500,04
665,989	542,05
666,395	551,93
666,801	564,29
667,207	564,29
667,613	492,63
668,019	453,1
668,425	492,63
668,83	514,87
669,236	618,65
669,642	453,1
670,047	448,15
670,453	556,87
670,858	579,11
671,264	532,16
671,669	512,4
672,074	574,17
672,48	554,4
672,885	586,52
673,29	551,93
673,695	551,93
674,1	485,22
674,505	539,58
674,909	485,22
675,314	477,81
675,719	556,87
676,124	475,33
676,528	502,51
676,933	485,22
677,337	524,75
677,742	465,45
678,146	509,93
678,55	522,28
678,955	480,28
679,359	485,22
679,763	559,34
680,167	527,22
680,571	507,46
680,975	546,99
681,379	514,87
681,782	546,99
682,186	445,68
682,59	485,22
682,993	519,81
683,397	440,74
683,8	495,1
684,204	500,04
684,607	465,45
685,011	472,86
685,414	458,04
685,817	440,74
686,22	482,75
686,623	455,57
687,026	497,57
687,429	416,03
687,832	428,39
688,235	369,09
688,638	440,74
689,04	475,33
689,443	430,86
689,845	465,45
690,248	401,21
690,65	502,51
691,053	480,28
691,455	443,21
691,857	435,8
692,26	458,04
692,662	443,21
693,064	453,1
693,466	507,46
693,868	475,33
694,27	435,8
694,671	398,74
695,073	443,21
695,475	450,63
695,877	455,57
696,278	465,45
696,68	391,32
697,081	453,1
697,483	428,39
697,884	440,74
698,285	416,03
698,686	388,85
699,087	408,62
699,489	411,09
699,89	438,27
700,291	401,21
700,691	425,92
701,092	396,27
701,493	443,21
701,894	435,8
702,294	462,98
702,695	416,03
703,096	386,38
703,496	423,45
703,896	425,92
704,297	428,39
704,697	381,44
705,097	425,92
705,497	443,21
705,897	435,8
706,297	490,16
706,697	462,98
707,097	445,68
707,497	364,15
707,897	406,15
708,297	408,62
708,696	453,1
709,096	435,8
709,495	408,62
709,895	430,86
710,294	391,32
710,694	344,38
711,093	416,03
711,492	386,38
711,891	462,98
712,29	354,26
712,689	413,56
713,088	420,98
713,487	391,32
713,886	443,21
714,285	458,04
714,684	428,39
715,082	408,62
715,481	433,33
715,879	423,45
716,278	480,28
716,676	425,92
717,075	440,74
717,473	433,33
717,871	443,21
718,269	443,21
718,667	470,39
719,065	458,04
719,463	398,74
719,861	378,97
720,259	378,97
720,657	374,03
721,054	406,15
721,452	406,15
721,85	361,67
722,247	470,39
722,645	433,33
723,042	425,92
723,439	396,27
723,837	438,27
724,234	438,27
724,631	418,5
725,028	416,03
725,425	445,68
725,822	500,04
726,219	391,32
726,616	336,97
727,012	420,98
727,409	450,63
727,806	487,69
728,202	418,5
728,599	425,92
728,995	423,45
729,392	398,74
729,788	440,74
730,184	391,32
730,58	440,74
730,977	418,5
731,373	485,22
731,769	378,97
732,165	428,39
732,56	448,15
732,956	450,63
733,352	450,63
733,748	391,32
734,143	430,86
734,539	416,03
734,934	418,5
735,33	374,03
735,725	472,86
736,12	443,21
736,516	332,02
736,911	416,03
737,306	408,62
737,701	359,2
738,096	423,45
738,491	428,39
738,886	430,86
739,28	396,27
739,675	416,03
740,07	418,5
740,464	455,57
740,859	443,21
741,253	420,98
741,648	416,03
742,042	416,03
742,437	425,92
742,831	512,4
743,225	438,27
743,619	455,57
744,013	480,28
744,407	396,27
744,801	428,39
745,195	519,81
745,588	416,03
745,982	418,5
746,376	356,73
746,769	376,5
747,163	482,75
747,556	445,68
747,95	425,92
748,343	430,86
748,736	406,15
749,13	383,91
749,523	445,68
749,916	416,03
750,309	443,21
750,702	425,92
751,095	388,85
751,487	396,27
751,88	440,74
752,273	403,68
752,665	411,09
753,058	420,98
753,45	420,98
753,843	472,86
754,235	393,8
754,627	462,98
755,02	398,74
755,412	433,33
755,804	398,74
756,196	383,91
756,588	443,21
756,98	401,21
757,372	453,1
757,764	386,38
758,155	428,39
758,547	443,21
758,938	443,21
759,33	433,33
759,721	411,09
760,113	504,98
760,504	497,57
760,895	438,27
761,287	537,11
761,678	482,75
762,069	480,28
762,46	460,51
762,851	420,98
763,242	460,51
763,632	408,62
764,023	492,63
764,414	448,15
764,804	438,27
765,195	512,4
765,586	455,57
765,976	443,21
766,366	455,57
766,757	485,22
767,147	413,56
767,537	406,15
767,927	467,92
768,317	371,56
768,707	425,92
769,097	398,74
769,487	386,38
769,877	371,56
770,266	477,81
770,656	425,92
771,045	366,62
771,435	411,09
771,824	423,45
772,214	455,57
772,603	430,86
772,992	504,98
773,382	472,86
773,771	433,33
774,16	480,28
774,549	517,34
774,938	504,98
775,327	551,93
775,715	502,51
776,104	522,28
776,493	569,23
776,881	519,81
777,27	532,16
777,658	571,7
778,047	537,11
778,435	546,99
778,823	581,58
779,212	601,35
779,6	626,06
779,988	653,24
780,376	564,29
780,764	621,12
781,152	561,82
781,539	574,17
781,927	593,94
782,315	559,34
782,702	537,11
783,09	527,22
783,477	653,24
783,865	569,23
784,252	556,87
784,64	554,4
785,027	480,28
785,414	490,16
785,801	522,28
786,188	490,16
786,575	504,98
786,962	477,81
787,349	522,28
787,736	467,92
788,122	462,98
788,509	425,92
788,895	495,1
789,282	438,27
789,668	534,64
790,055	581,58
790,441	584,05
790,827	509,93
791,213	559,34
791,6	598,88
791,986	507,46
792,372	574,17
792,757	631
793,143	581,58
793,529	611,23
793,915	633,47
794,3	663,12
794,686	739,72
795,072	734,78
795,457	754,54
795,842	806,43
796,228	836,08
796,613	764,43
796,998	841,02
797,383	865,73
797,768	794,08
798,153	878,09
798,538	929,98
798,923	915,15
799,308	1021,4
799,692	974,45
800,077	981,86
800,462	949,74
800,846	1021,4
801,231	1102,94
801,615	1100,47
801,999	1157,3
802,384	1177,06
802,768	1246,25
803,152	1233,89
803,536	1290,72
803,92	1251,19
804,304	1350,02
804,688	1364,85
805,072	1451,33
805,455	1416,74
805,839	1530,4
806,223	1550,16
806,606	1532,87
806,99	1584,76
807,373	1562,52
807,756	1555,11
808,139	1584,76
808,523	1542,75
808,906	1527,93
809,289	1542,75
809,672	1552,64
810,055	1438,98
810,438	1557,58
810,82	1505,69
811,203	1399,44
811,586	1542,75
811,968	1495,81
812,351	1584,76
812,733	1636,65
813,116	1525,46
813,498	1478,51
813,88	1572,4
814,263	1572,4
814,645	1411,8
815,027	1409,32
815,409	1485,92
815,791	1483,45
816,172	1350,02
816,554	1283,31
816,936	1164,71
817,318	1186,95
817,699	1162,24
818,081	1105,41
818,462	986,81
818,844	1021,4
819,225	944,8
819,606	937,39
819,987	922,56
820,368	897,85
820,749	1048,58
821,13	981,86
821,511	1095,52
821,892	1117,76
822,273	1149,88
822,654	1231,42
823,034	1261,07
823,415	1396,97
823,795	1350,02
824,176	1503,22
824,556	1767,6
824,937	1742,89
825,317	1868,91
825,697	1970,21
826,077	2051,75
826,457	2192,59
826,837	2363,08
827,217	2550,87
827,597	2694,18
827,977	2943,74
828,356	3082,11
828,736	3435,44
829,116	3479,92
829,495	3734,42
829,874	4119,87
830,254	4357,08
830,633	4643,7
831,012	4937,73
831,392	5043,98
831,771	5207,06
832,15	5424,5
832,529	5498,62
832,908	5636,99
833,286	5674,05
833,665	5701,23
834,044	5795,13
834,422	5624,64
834,801	5683,94
835,179	5520,86
835,558	5142,82
835,936	5006,92
836,314	4824,07
836,693	4379,32
837,071	4179,18
837,449	3934,56
837,827	3605,93
838,205	3257,54
838,583	2965,98
838,961	2607,7
839,338	2377,91
839,716	2118,47
840,094	1886,2
840,471	1735,48
840,849	1540,28
841,226	1357,44
841,603	1266,01
841,981	1219,07
842,358	1144,94
842,735	1144,94
843,112	1097,99
843,489	1068,34
843,866	1122,7
844,243	1110,35
844,62	1100,47
844,996	1152,35
845,373	1280,84
845,749	1332,73
846,126	1256,13
846,502	1409,32
846,879	1411,8
847,255	1411,8
847,631	1431,56
848,008	1458,74
848,384	1461,21
848,76	1490,86
849,136	1416,74
849,512	1396,97
849,887	1456,27
850,263	1416,74
850,639	1426,62
851,014	1404,38
851,39	1350,02
851,765	1335,2
852,141	1270,96
852,516	1211,66
852,892	1280,84
853,267	1154,82
853,642	1088,11
854,017	991,75
854,392	1051,05
854,767	947,27
855,142	976,92
855,517	949,74
855,891	885,5
856,266	826,2
856,641	808,9
857,015	848,44
857,39	801,49
857,764	873,15
858,138	794,08
858,513	838,55
858,887	927,5
859,261	845,97
859,635	870,67
860,009	915,15
860,383	981,86
860,757	1095,52
861,13	1228,95
861,504	1162,24
861,878	1387,09
862,251	1473,57
862,625	1713,24
862,998	1809,61
863,372	1970,21
863,745	2101,17
864,118	2180,24
864,491	2506,39
864,864	2550,87
865,237	2654,65
865,61	2839,96
865,983	2820,19
866,356	2889,38
866,729	2847,37
867,101	2790,54
867,474	2886,91
867,846	2788,07
868,219	2595,34
868,591	2540,99
868,964	2452,03
869,336	2333,43
869,708	2204,95
870,08	1999,86
870,452	1883,73
870,824	1691
871,196	1508,16
871,568	1399,44
871,94	1285,78
872,311	1199,3
872,683	1048,58
873,055	981,86
873,426	947,27
873,797	920,09
874,169	875,62
874,54	870,67
874,911	757,01
875,282	907,74
875,654	855,85
876,025	887,97
876,395	949,74
876,766	986,81
877,137	996,69
877,508	1159,77
877,878	1184,48
878,249	1261,07
878,62	1288,25
878,99	1283,31
879,36	1335,2
879,731	1372,26
880,101	1372,26
880,471	1443,92
880,841	1505,69
881,211	1508,16
881,581	1387,09
881,951	1461,21
882,321	1522,99
882,691	1522,99
883,06	1574,87
883,43	1557,58
883,799	1594,64
884,169	1636,65
884,538	1661,35
884,908	1775,01
885,277	1787,37
885,646	1775,01
886,015	1866,44
886,384	1814,55
886,753	1846,67
887,122	1787,37
887,491	1970,21
887,86	1831,84
888,228	1994,92
888,597	1975,16
888,966	1960,33
889,334	1863,97
889,703	1854,08
890,071	2009,75
890,439	1851,61
890,807	1735,48
891,176	1703,36
891,544	1713,24
891,912	1547,69
892,28	1483,45
892,647	1485,92
893,015	1384,62
893,383	1429,09
893,751	1337,67
894,118	1310,49
894,486	1251,19
894,853	1310,49
895,22	1253,66
895,588	1325,32
895,955	1238,83
896,322	1204,24
896,689	1169,65
897,056	1184,48
897,423	1083,17
897,79	1063,4
898,157	1075,76
898,523	1078,23
898,89	1135,06
899,257	1046,11
899,623	1065,87
899,99	1065,87
900,356	1023,87
900,722	1055,99
901,089	1011,51
901,455	971,98
901,821	1026,34
902,187	971,98
902,553	897,85
902,919	890,44
903,285	836,08
903,65	823,73
904,016	752,07
904,382	779,25
904,747	707,6
905,113	744,66
905,478	687,83
905,843	702,65
906,208	680,42
906,574	606,29
906,939	638,41
907,304	690,3
907,669	613,7
908,034	591,47
908,398	618,65
908,763	591,47
909,128	556,87
909,492	613,7
909,857	631
910,221	581,58
910,586	606,29
910,95	584,05
911,314	593,94
911,679	626,06
912,043	542,05
912,407	588,99
912,771	603,82
913,135	529,69
913,498	598,88
913,862	616,17
914,226	576,64
914,589	534,64
914,953	616,17
915,316	551,93
915,68	490,16
916,043	490,16
916,406	539,58
916,77	485,22
917,133	477,81
917,496	546,99
917,859	472,86
918,222	438,27
918,584	500,04
918,947	435,8
919,31	465,45
919,673	433,33
920,035	465,45
920,398	477,81
920,76	500,04
921,122	411,09
921,485	462,98
921,847	460,51
922,209	495,1
922,571	458,04
922,933	502,51
923,295	458,04
923,657	458,04
924,018	455,57
924,38	391,32
924,742	497,57
925,103	475,33
925,465	465,45
925,826	465,45
926,187	443,21
926,549	416,03
926,91	485,22
927,271	480,28
927,632	450,63
927,993	462,98
928,354	470,39
928,715	430,86
929,075	507,46
929,436	408,62
929,797	462,98
930,157	487,69
930,518	556,87
930,878	341,91
931,238	440,74
931,598	462,98
931,959	455,57
932,319	396,27
932,679	393,8
933,039	472,86
933,399	438,27
933,758	509,93
934,118	485,22
934,478	403,68
934,837	453,1
935,197	401,21
935,556	467,92
935,916	396,27
936,275	462,98
936,634	433,33
936,993	418,5
937,353	475,33
937,712	430,86
938,07	453,1
938,429	453,1
938,788	401,21
939,147	554,4
939,506	438,27
939,864	408,62
940,223	487,69
940,581	433,33
940,939	485,22
941,298	450,63
941,656	401,21
942,014	465,45
942,372	467,92
942,73	401,21
943,088	458,04
943,446	458,04
943,804	435,8
944,161	381,44
944,519	448,15
944,877	440,74
945,234	495,1
945,592	430,86
945,949	477,81
946,306	445,68
946,663	462,98
947,021	396,27
947,378	388,85
947,735	455,57
948,091	470,39
948,448	418,5
948,805	381,44
949,162	406,15
949,518	470,39
949,875	423,45
950,231	425,92
950,588	423,45
950,944	430,86
951,3	462,98
951,657	408,62
952,013	504,98
952,369	413,56
952,725	458,04
953,081	378,97
953,436	435,8
953,792	495,1
954,148	413,56
954,503	440,74
954,859	470,39
955,214	450,63
955,57	504,98
955,925	458,04
956,28	383,91
956,635	438,27
956,991	428,39
957,346	465,45
957,701	490,16
958,055	433,33
958,41	420,98
958,765	450,63
959,12	416,03
959,474	438,27
959,829	467,92
960,183	492,63
960,537	512,4
960,892	500,04
961,246	524,75
961,6	430,86
961,954	438,27
962,308	448,15
962,662	487,69
963,016	371,56
963,37	428,39
963,723	465,45
964,077	559,34
964,43	450,63
964,784	453,1
965,137	475,33
965,491	485,22
965,844	408,62
966,197	467,92
966,55	502,51
966,903	485,22
967,256	514,87
967,609	425,92
967,962	475,33
968,315	537,11
968,667	514,87
969,02	475,33
969,372	420,98
969,725	445,68
970,077	460,51
970,429	465,45
970,782	475,33
971,134	492,63
971,486	440,74
971,838	502,51
972,19	425,92
972,542	485,22
972,893	458,04
973,245	467,92
973,597	507,46
973,948	430,86
974,3	475,33
974,651	450,63
975,003	440,74
975,354	504,98
975,705	492,63
976,056	529,69
976,407	522,28
976,758	482,75
977,109	455,57
977,46	443,21
977,811	418,5
978,161	487,69
978,512	492,63
978,862	500,04
979,213	527,22
979,563	455,57
979,913	465,45
980,264	467,92
980,614	546,99
980,964	460,51
981,314	480,28
981,664	524,75
982,014	450,63
982,363	416,03
982,713	472,86
983,063	413,56
983,412	519,81
983,762	433,33
984,111	475,33
984,461	472,86
984,81	398,74
985,159	472,86
985,508	458,04
985,857	480,28
986,206	492,63
986,555	445,68
986,904	492,63
987,253	445,68
987,601	448,15
987,95	403,68
988,298	401,21
988,647	428,39
988,995	435,8
989,343	420,98
989,692	374,03
990,04	487,69
990,388	465,45
990,736	420,98
991,084	467,92
991,432	453,1
991,779	416,03
992,127	430,86
992,475	418,5
992,822	386,38
993,17	438,27
993,517	495,1
993,864	433,33
994,212	420,98
994,559	381,44
994,906	425,92
995,253	440,74
995,6	383,91
995,947	477,81
996,293	472,86
996,64	455,57
996,987	423,45
997,333	408,62
997,68	401,21
998,026	467,92
998,373	450,63
998,719	383,91
999,065	406,15
999,411	359,2
999,757	376,5
1000,103	428,39
1000,449	393,8
1000,795	485,22
1001,141	480,28
1001,486	445,68
1001,832	416,03
1002,177	398,74
1002,523	386,38
1002,868	413,56
1003,213	411,09
1003,559	420,98
1003,904	420,98
1004,249	406,15
1004,594	359,2
1004,939	339,44
1005,283	458,04
1005,628	418,5
1005,973	356,73
1006,318	420,98
1006,662	381,44
1007,007	346,85
1007,351	425,92
1007,695	341,91
1008,039	448,15
1008,384	364,15
1008,728	416,03
1009,072	425,92
1009,416	423,45
1009,759	376,5
1010,103	334,49
1010,447	425,92
1010,791	475,33
1011,134	408,62
1011,478	440,74
1011,821	428,39
1012,164	376,5
1012,508	416,03
1012,851	401,21
1013,194	374,03
1013,537	401,21
1013,88	386,38
1014,223	396,27
1014,565	403,68
1014,908	408,62
1015,251	383,91
1015,593	361,67
1015,936	327,08
1016,278	378,97
1016,621	371,56
1016,963	393,8
1017,305	383,91
1017,647	336,97
1017,989	455,57
1018,331	433,33
1018,673	329,55
1019,015	339,44
1019,356	401,21
1019,698	411,09
1020,04	378,97
1020,381	406,15
1020,723	327,08
1021,064	369,09
1021,405	388,85
1021,746	416,03
1022,088	341,91
1022,429	341,91
1022,77	396,27
1023,11	391,32
1023,451	371,56
1023,792	371,56
1024,133	371,56
