Data from FLMS187131_15-43-57-082.txt Node
Date: Mon Dec 23 15:43:57 MSK 2024
User: FemtoLab1
Spectrometer: FLMS18713
Trigger mode: 0
Integration Time (sec): 4,300000E-2
Scans to average: 1
Electric dark correction enabled: true
Nonlinearity correction enabled: false
Boxcar width: 0
XAxis mode: Wavelengths
Number of Pixels in Spectrum: 2048
>>>>>Begin Spectral Data<<<<<
190,252	-19,77
190,715	-19,77
191,177	-19,77
191,64	-42
192,102	-118,6
192,565	-88,95
193,027	-54,36
193,49	-101,31
193,952	-98,83
194,415	-93,89
194,877	-98,83
195,339	-56,83
195,802	-39,53
196,264	44,48
196,726	-7,41
197,188	-9,88
197,65	86,48
198,112	59,3
198,574	175,43
199,036	101,31
199,498	182,84
199,96	148,25
200,421	237,2
200,883	192,73
201,345	249,56
201,807	333,57
202,268	355,81
202,73	261,91
203,191	289,09
203,653	303,92
204,114	375,57
204,576	375,57
205,037	402,75
205,498	417,58
205,96	380,51
206,421	370,63
206,882	395,34
207,343	444,76
207,804	457,11
208,265	496,65
208,726	422,52
209,187	429,93
209,648	420,05
210,109	412,64
210,57	467
211,031	385,46
211,492	427,46
211,952	412,64
212,413	469,47
212,874	471,94
213,334	449,7
213,795	343,45
214,255	390,4
214,716	407,69
215,176	395,34
215,636	417,58
216,097	459,58
216,557	447,23
217,017	447,23
217,477	410,17
217,938	462,05
218,398	476,88
218,858	471,94
219,318	462,05
219,778	422,52
220,238	345,92
220,698	402,75
221,157	429,93
221,617	350,86
222,077	449,7
222,537	479,35
222,996	390,4
223,456	457,11
223,915	447,23
224,375	407,69
224,834	402,75
225,294	392,87
225,753	422,52
226,213	363,22
226,672	427,46
227,131	405,22
227,59	365,69
228,05	400,28
228,509	474,41
228,968	358,28
229,427	444,76
229,886	311,33
230,345	452,17
230,804	415,11
231,263	358,28
231,721	439,82
232,18	447,23
232,639	355,81
233,098	424,99
233,556	373,1
234,015	422,52
234,473	471,94
234,932	410,17
235,39	420,05
235,849	439,82
236,307	434,87
236,765	429,93
237,224	373,1
237,682	392,87
238,14	392,87
238,598	444,76
239,056	437,34
239,514	449,7
239,972	400,28
240,43	449,7
240,888	375,57
241,346	462,05
241,804	467
242,262	407,69
242,72	338,51
243,177	350,86
243,635	429,93
244,093	412,64
244,55	422,52
245,008	397,81
245,465	437,34
245,923	417,58
246,38	469,47
246,837	424,99
247,295	437,34
247,752	432,4
248,209	437,34
248,666	452,17
249,123	420,05
249,58	427,46
250,037	459,58
250,494	452,17
250,951	410,17
251,408	457,11
251,865	452,17
252,322	437,34
252,779	420,05
253,235	363,22
253,692	501,59
254,149	469,47
254,605	476,88
255,062	432,4
255,518	449,7
255,975	380,51
256,431	442,29
256,887	407,69
257,344	395,34
257,8	476,88
258,256	407,69
258,712	380,51
259,168	397,81
259,625	444,76
260,081	457,11
260,537	447,23
260,992	452,17
261,448	402,75
261,904	464,52
262,36	462,05
262,816	363,22
263,272	405,22
263,727	400,28
264,183	434,87
264,638	489,23
265,094	474,41
265,549	464,52
266,005	491,7
266,46	464,52
266,916	432,4
267,371	469,47
267,826	439,82
268,281	504,06
268,737	410,17
269,192	504,06
269,647	427,46
270,102	481,82
270,557	444,76
271,012	432,4
271,467	469,47
271,921	447,23
272,376	415,11
272,831	405,22
273,286	474,41
273,74	467
274,195	442,29
274,649	439,82
275,104	420,05
275,558	454,64
276,013	407,69
276,467	434,87
276,922	462,05
277,376	486,76
277,83	420,05
278,284	481,82
278,739	405,22
279,193	469,47
279,647	358,28
280,101	397,81
280,555	484,29
281,009	420,05
281,462	417,58
281,916	457,11
282,37	422,52
282,824	469,47
283,278	447,23
283,731	467
284,185	392,87
284,638	479,35
285,092	501,59
285,545	422,52
285,999	462,05
286,452	439,82
286,905	442,29
287,359	464,52
287,812	469,47
288,265	434,87
288,718	516,41
289,171	454,64
289,624	420,05
290,077	427,46
290,53	459,58
290,983	442,29
291,436	395,34
291,889	397,81
292,342	378,04
292,794	471,94
293,247	454,64
293,7	469,47
294,152	407,69
294,605	422,52
295,057	469,47
295,51	444,76
295,962	486,76
296,414	467
296,867	405,22
297,319	511,47
297,771	424,99
298,223	462,05
298,675	457,11
299,128	489,23
299,58	489,23
300,032	484,29
300,483	479,35
300,935	427,46
301,387	467
301,839	452,17
302,291	429,93
302,742	481,82
303,194	467
303,646	442,29
304,097	459,58
304,549	422,52
305	385,46
305,451	397,81
305,903	410,17
306,354	402,75
306,805	444,76
307,257	459,58
307,708	476,88
308,159	392,87
308,61	439,82
309,061	489,23
309,512	387,93
309,963	447,23
310,414	484,29
310,865	363,22
311,315	407,69
311,766	417,58
312,217	422,52
312,668	479,35
313,118	400,28
313,569	437,34
314,019	496,65
314,47	449,7
314,92	501,59
315,37	432,4
315,821	407,69
316,271	501,59
316,721	476,88
317,171	484,29
317,622	469,47
318,072	481,82
318,522	464,52
318,972	442,29
319,422	469,47
319,872	432,4
320,321	439,82
320,771	449,7
321,221	464,52
321,671	447,23
322,12	434,87
322,57	432,4
323,019	442,29
323,469	509
323,918	491,7
324,368	444,76
324,817	459,58
325,267	439,82
325,716	432,4
326,165	454,64
326,614	489,23
327,063	358,28
327,512	447,23
327,961	439,82
328,41	484,29
328,859	437,34
329,308	467
329,757	462,05
330,206	427,46
330,655	434,87
331,103	462,05
331,552	422,52
332,001	429,93
332,449	471,94
332,898	449,7
333,346	410,17
333,794	434,87
334,243	432,4
334,691	454,64
335,139	397,81
335,588	442,29
336,036	469,47
336,484	415,11
336,932	410,17
337,38	457,11
337,828	504,06
338,276	467
338,724	464,52
339,172	491,7
339,619	452,17
340,067	513,94
340,515	447,23
340,962	484,29
341,41	459,58
341,858	469,47
342,305	405,22
342,753	486,76
343,2	484,29
343,647	452,17
344,095	457,11
344,542	420,05
344,989	467
345,436	474,41
345,883	459,58
346,33	496,65
346,777	496,65
347,224	521,35
347,671	424,99
348,118	491,7
348,565	486,76
349,012	432,4
349,458	439,82
349,905	484,29
350,352	499,12
350,798	471,94
351,245	390,4
351,691	491,7
352,138	464,52
352,584	481,82
353,03	479,35
353,477	422,52
353,923	405,22
354,369	449,7
354,815	449,7
355,261	437,34
355,707	504,06
356,153	474,41
356,599	437,34
357,045	437,34
357,491	387,93
357,937	499,12
358,382	439,82
358,828	462,05
359,274	397,81
359,719	417,58
360,165	486,76
360,61	476,88
361,056	449,7
361,501	417,58
361,947	481,82
362,392	437,34
362,837	457,11
363,282	442,29
363,727	373,1
364,173	424,99
364,618	476,88
365,063	437,34
365,508	449,7
365,952	340,98
366,397	434,87
366,842	447,23
367,287	417,58
367,732	481,82
368,176	422,52
368,621	499,12
369,065	462,05
369,51	491,7
369,954	459,58
370,399	494,17
370,843	412,64
371,287	415,11
371,732	459,58
372,176	481,82
372,62	365,69
373,064	464,52
373,508	459,58
373,952	407,69
374,396	420,05
374,84	439,82
375,284	469,47
375,728	462,05
376,172	496,65
376,615	452,17
377,059	481,82
377,503	491,7
377,946	499,12
378,39	412,64
378,833	424,99
379,277	474,41
379,72	434,87
380,163	422,52
380,607	444,76
381,05	489,23
381,493	429,93
381,936	444,76
382,379	444,76
382,822	489,23
383,265	486,76
383,708	437,34
384,151	439,82
384,594	454,64
385,037	541,12
385,479	427,46
385,922	471,94
386,365	457,11
386,807	494,17
387,25	479,35
387,692	437,34
388,135	434,87
388,577	452,17
389,019	410,17
389,461	452,17
389,904	382,99
390,346	385,46
390,788	499,12
391,23	397,81
391,672	454,64
392,114	420,05
392,556	444,76
392,998	457,11
393,44	457,11
393,881	454,64
394,323	447,23
394,765	479,35
395,206	432,4
395,648	481,82
396,09	410,17
396,531	427,46
396,972	447,23
397,414	405,22
397,855	504,06
398,296	496,65
398,738	481,82
399,179	481,82
399,62	494,17
400,061	479,35
400,502	407,69
400,943	439,82
401,384	454,64
401,825	444,76
402,265	457,11
402,706	467
403,147	432,4
403,588	484,29
404,028	484,29
404,469	452,17
404,909	491,7
405,35	479,35
405,79	395,34
406,23	459,58
406,671	499,12
407,111	429,93
407,551	397,81
407,991	484,29
408,431	422,52
408,871	462,05
409,311	467
409,751	486,76
410,191	410,17
410,631	449,7
411,071	459,58
411,511	457,11
411,95	481,82
412,39	506,53
412,83	462,05
413,269	447,23
413,709	378,04
414,148	494,17
414,587	471,94
415,027	479,35
415,466	481,82
415,905	457,11
416,345	454,64
416,784	380,51
417,223	481,82
417,662	429,93
418,101	486,76
418,54	449,7
418,979	486,76
419,417	479,35
419,856	457,11
420,295	481,82
420,734	442,29
421,172	481,82
421,611	496,65
422,049	392,87
422,488	449,7
422,926	528,77
423,364	474,41
423,803	481,82
424,241	459,58
424,679	471,94
425,117	491,7
425,555	479,35
425,994	509
426,432	476,88
426,87	509
427,307	449,7
427,745	471,94
428,183	417,58
428,621	531,24
429,058	491,7
429,496	442,29
429,934	499,12
430,371	407,69
430,809	469,47
431,246	459,58
431,684	484,29
432,121	457,11
432,558	462,05
432,995	501,59
433,433	447,23
433,87	454,64
434,307	452,17
434,744	484,29
435,181	513,94
435,618	486,76
436,055	528,77
436,491	484,29
436,928	474,41
437,365	489,23
437,801	491,7
438,238	476,88
438,675	543,59
439,111	439,82
439,548	467
439,984	558,42
440,42	555,95
440,857	494,17
441,293	447,23
441,729	551
442,165	467
442,601	511,47
443,037	484,29
443,473	471,94
443,909	434,87
444,345	496,65
444,781	464,52
445,217	558,42
445,652	548,53
446,088	484,29
446,524	516,41
446,959	434,87
447,395	560,89
447,83	565,83
448,266	597,95
448,701	546,06
449,136	573,24
449,572	449,7
450,007	501,59
450,442	457,11
450,877	551
451,312	479,35
451,747	516,41
452,182	548,53
452,617	501,59
453,052	568,3
453,486	501,59
453,921	546,06
454,356	481,82
454,79	509
455,225	511,47
455,66	533,71
456,094	501,59
456,528	518,88
456,963	541,12
457,397	602,89
457,831	489,23
458,265	518,88
458,7	486,76
459,134	563,36
459,568	588,07
460,002	486,76
460,436	506,53
460,87	457,11
461,303	484,29
461,737	526,3
462,171	506,53
462,605	462,05
463,038	506,53
463,472	469,47
463,905	496,65
464,339	447,23
464,772	509
465,205	471,94
465,639	496,65
466,072	447,23
466,505	491,7
466,938	471,94
467,371	523,83
467,804	457,11
468,237	467
468,67	449,7
469,103	444,76
469,536	553,48
469,969	486,76
470,402	442,29
470,834	486,76
471,267	484,29
471,699	484,29
472,132	471,94
472,564	454,64
472,997	452,17
473,429	459,58
473,861	444,76
474,294	523,83
474,726	489,23
475,158	454,64
475,59	521,35
476,022	484,29
476,454	459,58
476,886	496,65
477,318	509
477,75	479,35
478,181	439,82
478,613	486,76
479,045	467
479,476	551
479,908	531,24
480,339	546,06
480,771	457,11
481,202	481,82
481,634	479,35
482,065	494,17
482,496	491,7
482,927	457,11
483,358	533,71
483,789	491,7
484,22	513,94
484,651	494,17
485,082	501,59
485,513	548,53
485,944	489,23
486,375	538,65
486,805	528,77
487,236	523,83
487,667	501,59
488,097	491,7
488,527	471,94
488,958	476,88
489,388	489,23
489,819	523,83
490,249	518,88
490,679	484,29
491,109	521,35
491,539	496,65
491,969	513,94
492,399	560,89
492,829	494,17
493,259	523,83
493,689	496,65
494,119	454,64
494,548	543,59
494,978	509
495,408	538,65
495,837	546,06
496,267	583,13
496,696	588,07
497,126	585,6
497,555	516,41
497,984	551
498,413	528,77
498,843	536,18
499,272	590,54
499,701	590,54
500,13	518,88
500,559	630,07
500,988	620,19
501,417	543,59
501,845	573,24
502,274	565,83
502,703	622,66
503,131	558,42
503,56	691,84
503,988	563,36
504,417	610,31
504,845	578,18
505,274	615,25
505,702	617,72
506,13	622,66
506,558	662,19
506,987	654,78
507,415	684,43
507,843	580,66
508,271	662,19
508,699	632,54
509,126	654,78
509,554	669,61
509,982	731,38
510,41	681,96
510,837	746,2
511,265	719,02
511,693	746,2
512,12	810,45
512,547	894,46
512,975	1010,59
513,402	958,7
513,829	1188,49
514,257	1250,26
514,684	1396,04
515,111	1534,41
515,538	1685,14
515,965	1880,34
516,392	2280,62
516,819	2720,43
517,246	2992,23
517,672	3422,16
518,099	3995,4
518,526	4472,28
518,952	5235,78
519,379	5989,4
519,805	6693,6
520,232	7691,83
520,658	8576,4
521,085	9483,22
521,511	10629,7
521,937	12089,99
522,363	13073,4
522,789	14449,67
523,215	16028,56
523,641	17382,6
524,067	19067,74
524,493	20478,61
524,919	22020,43
525,345	23720,39
525,771	25346,23
526,196	26811,46
526,622	28854,87
527,047	30485,65
527,473	31676,61
527,898	33467,99
528,324	35041,94
528,749	36452,81
529,174	37851,32
529,6	38906,39
530,025	40944,86
530,45	42061,69
530,875	43494,8
531,3	44381,84
531,725	45199,7
532,15	46012,62
532,575	46773,65
532,999	47589,04
533,424	48253,7
533,849	48940,61
534,273	49434,78
534,698	49736,23
535,122	49877,07
535,547	49978,38
535,971	50193,34
536,396	50000,61
536,82	49830,12
537,244	50166,16
537,668	49615,16
538,092	49044,38
538,517	48809,65
538,941	48201,82
539,364	47406,2
539,788	46719,29
540,212	45980,5
540,636	45170,05
541,06	44203,94
541,483	42778,25
541,907	42054,28
542,331	40900,38
542,754	39739,07
543,178	38785,31
543,601	37327,5
544,024	36420,69
544,448	35415,04
544,871	34562,59
545,294	33364,22
545,717	32600,72
546,14	32032,41
546,563	31283,74
546,986	30747,56
547,409	30060,66
547,832	29593,66
548,255	29531,89
548,677	28877,11
549,1	28874,64
549,522	28427,41
549,945	28728,86
550,368	28765,92
550,79	28237,15
551,212	28852,4
551,635	28600,37
552,057	28597,9
552,479	28279,16
552,901	28153,14
553,323	27898,64
553,745	27555,19
554,167	27285,87
554,589	26702,74
555,011	26119,61
555,433	25281,99
555,855	24575,32
556,277	23834,05
556,698	23181,74
557,12	22247,75
557,541	21328,59
557,963	20184,57
558,384	19388,95
558,806	18563,68
559,227	17938,55
559,648	17128,1
560,069	16745,12
560,49	16213,88
560,912	15608,51
561,333	15719,7
561,754	15190,94
562,174	14995,74
562,595	14649,81
563,016	14452,14
563,437	14550,98
563,858	14252
564,278	13775,12
564,699	13310,6
565,119	13078,34
565,54	12930,09
565,96	12369,2
566,38	12230,83
566,801	11825,6
567,221	11571,1
567,641	10978,09
568,061	10647
568,481	10518,51
568,901	10108,35
569,321	10120,7
569,741	9443,68
570,161	9292,96
570,581	9129,88
571,001	9077,99
571,42	8914,91
571,84	8774,07
572,259	8887,73
572,679	8717,24
573,098	8828,43
573,518	8702,42
573,937	8890,21
574,356	9174,36
574,775	9216,36
575,195	9421,44
575,614	9890,91
576,033	9979,86
576,452	10044,1
576,871	10558,05
577,29	10869,38
577,708	11222,71
578,127	11405,56
578,546	11951,62
578,964	12154,23
579,383	12754,65
579,801	12786,77
580,22	13065,98
580,638	13780,07
581,057	14192,7
581,475	14298,95
581,893	14607,81
582,311	14691,82
582,73	15000,68
583,148	15156,34
583,566	15665,34
583,984	15744,41
584,401	15939,61
584,819	16372,01
585,237	16478,26
585,655	16624,04
586,072	16589,45
586,49	17039,15
586,908	17135,51
587,325	17397,43
587,742	17113,28
588,16	17249,17
588,577	17429,55
588,994	18022,56
589,412	17926,19
589,829	17748,29
590,246	18301,77
590,663	18657,57
591,08	18336,36
591,497	18714,4
591,914	18857,71
592,33	19307,41
592,747	19426,01
593,164	19359,3
593,58	20046,2
593,997	19742,29
594,413	20698,51
594,83	20604,62
595,246	20903,6
595,663	21093,85
596,079	21345,88
596,495	21711,57
596,911	21600,38
597,327	21560,85
597,743	21355,77
598,159	21219,87
598,575	21254,46
598,991	21182,81
599,407	21459,54
599,823	21130,92
600,238	20908,54
600,654	20945,6
601,07	21276,7
601,485	21385,42
601,901	21249,52
602,316	21256,93
602,731	21523,79
603,147	21130,92
603,562	20957,96
603,977	20957,96
604,392	20859,12
604,807	20537,91
605,222	20784,99
605,637	20426,72
606,052	20159,86
606,467	20006,67
606,882	19559,44
607,296	19712,64
607,711	19687,93
608,125	19653,33
608,54	19482,84
608,954	19465,55
609,369	19586,62
609,783	19569,32
610,197	19576,74
610,612	19710,16
611,026	19749,7
611,44	19737,34
611,854	19747,23
612,268	19895,48
612,682	19996,79
613,096	20085,74
613,51	19959,72
613,923	19900,42
614,337	20058,56
614,751	19729,93
615,164	19556,97
615,578	19977,02
615,991	19675,57
616,405	19759,58
616,818	19858,42
617,231	19613,8
617,645	19972,08
618,058	19920,19
618,471	20243,87
618,884	20154,92
619,297	20214,22
619,71	19821,35
620,123	19818,88
620,536	19863,36
620,948	19858,42
621,361	19779,35
621,774	19680,51
622,186	19571,8
622,599	19752,17
623,011	19873,24
623,424	19507,55
623,836	19616,27
624,248	19532,26
624,661	19448,25
625,073	19435,9
625,485	19188,81
625,897	19094,92
626,309	19077,62
626,721	19089,98
627,133	19359,3
627,545	19517,44
627,956	19198,69
628,368	19596,5
628,78	19537,2
629,191	19569,32
629,603	19564,38
630,014	19883,13
630,426	19925,13
630,837	19653,33
631,248	19757,11
631,66	20110,45
632,071	20098,09
632,482	20394,6
632,893	20125,27
633,304	20691,1
633,715	20518,14
634,126	20372,36
634,536	20525,55
634,947	20624,39
635,358	20861,59
635,769	20854,18
636,179	20644,16
636,59	20898,66
637	20686,16
637,41	20992,55
637,821	20814,65
638,231	21145,74
638,641	20777,58
639,051	20883,83
639,462	21249,52
639,872	21041,97
640,282	20772,64
640,691	20584,85
641,101	21101,27
641,511	21037,02
641,921	20849,24
642,331	20686,16
642,74	20592,27
643,15	20478,61
643,559	20095,62
643,969	20219,16
644,378	20157,39
644,787	20061,03
645,197	20132,68
645,606	20046,2
646,015	20073,38
646,424	20130,21
646,833	19752,17
647,242	19831,24
647,651	20115,39
648,06	19816,41
648,469	19949,84
648,877	19433,43
649,286	19794,17
649,694	19893,01
650,103	19786,76
650,512	19986,9
650,92	19967,14
651,328	20557,67
651,737	20448,96
652,145	20869
652,553	20945,6
652,961	21014,79
653,369	21135,86
653,777	21165,51
654,185	20733,11
654,593	21217,4
655,001	21306,35
655,409	21513,9
655,816	21642,39
656,224	21541,08
656,631	21877,12
657,039	22143,98
657,446	21891,95
657,854	22227,99
658,261	22699,92
658,668	22546,73
659,076	22764,17
659,483	23260,81
659,89	22440,48
660,297	22643,09
660,704	22309,52
661,111	22413,3
661,518	22042,67
661,924	21301,41
662,331	20765,23
662,738	20713,34
663,144	19752,17
663,551	19660,75
663,957	19344,48
664,364	19292,59
664,77	18739,11
665,177	18929,37
665,583	18583,45
665,989	18504,38
666,395	18368,48
666,801	18210,34
667,207	18336,36
667,613	18474,73
668,019	18049,74
668,425	18286,94
668,83	18459,9
669,236	18000,32
669,642	18341,3
670,047	18089,27
670,453	17861,95
670,858	17543,21
671,264	17896,54
671,669	17399,9
672,074	17066,33
672,48	17170,11
672,885	16638,87
673,29	16490,62
673,695	16221,29
674,1	15803,71
674,505	15618,4
674,909	15025,39
675,314	15020,45
675,719	14457,09
676,124	14350,84
676,528	14061,75
676,933	13735,59
677,337	13234
677,742	13248,83
678,146	12848,55
678,55	12695,35
678,955	12072,69
679,359	11939,26
679,763	11561,22
680,167	11440,15
680,571	11076,93
680,975	11106,58
681,379	10827,37
681,782	10614,88
682,186	10241,77
682,59	10436,97
682,993	10165,18
683,397	10128,11
683,8	10229,42
684,204	9900,79
684,607	9908,21
685,011	10004,57
685,414	9695,71
685,817	9774,78
686,22	9537,57
686,623	9559,81
687,026	9456,04
687,429	9433,8
687,832	9389,32
688,235	9152,12
688,638	9124,94
689,04	8984,1
689,443	9060,7
689,845	8806,2
690,248	8756,78
690,65	8695,01
691,053	8504,75
691,455	8287,31
691,857	8188,48
692,26	8079,76
692,662	8094,58
693,064	7968,57
693,466	7830,2
693,868	7711,6
694,27	7548,52
694,671	7427,45
695,073	7336,03
695,475	7345,91
695,877	7360,73
696,278	7180,36
696,68	7079,05
697,081	7301,43
697,483	7232,25
697,884	7126
698,285	7192,72
698,686	7207,54
699,087	7027,17
699,489	7027,17
699,89	6923,39
700,291	6943,16
700,691	6772,67
701,092	6869,03
701,493	6715,84
701,894	6649,12
702,294	6649,12
702,695	6713,37
703,096	6775,14
703,496	6619,47
703,896	6602,18
704,297	6676,3
704,697	6673,83
705,097	6579,94
705,497	6542,88
705,897	6532,99
706,297	6397,09
706,697	6397,09
707,097	6444,04
707,497	6458,87
707,897	6453,92
708,297	6322,97
708,696	6619,47
709,096	6448,98
709,495	6495,93
709,895	6330,38
710,294	6404,51
710,694	6211,78
711,093	6135,18
711,492	6174,71
711,891	6258,72
712,29	6108
712,689	6159,89
713,088	5979,52
713,487	6004,22
713,886	5789,26
714,285	6053,64
714,684	5853,5
715,082	5885,62
715,481	5794,2
715,879	5752,2
716,278	5650,89
716,676	5616,3
717,075	5482,87
717,473	5596,53
717,871	5430,98
718,269	5243,2
718,667	5309,91
719,065	5144,36
719,463	5057,88
719,861	5201,19
720,259	4959,04
720,657	5008,46
721,054	5038,11
721,452	4887,39
721,85	4766,32
722,247	4897,27
722,645	4749,02
723,042	4561,23
723,439	4692,19
723,837	4618,06
724,234	4494,52
724,631	4519,23
725,028	4282,03
725,425	4269,67
725,822	4277,08
726,219	4007,76
726,616	4099,18
727,012	3945,99
727,409	3874,33
727,806	3745,85
728,202	3857,03
728,599	3617,36
728,995	3521
729,392	3538,29
729,788	3385,1
730,184	3481,46
730,58	3394,98
730,977	3244,26
731,373	3271,44
731,769	3229,43
732,165	3273,91
732,56	3259,08
732,956	3273,91
733,352	3078,71
733,748	3162,72
734,143	3031,76
734,539	3009,52
734,934	2982,35
735,33	2992,23
735,725	2969,99
736,12	2960,11
736,516	3002,11
736,911	2974,93
737,306	2885,98
737,701	2829,15
738,096	2819,27
738,491	2811,85
738,886	2935,4
739,28	2910,69
739,675	2725,37
740,07	2750,08
740,464	2730,32
740,859	2688,31
741,253	2824,21
741,648	2762,44
742,042	2596,89
742,437	2715,49
742,831	2624,07
743,225	2638,89
743,619	2705,61
744,013	2579,59
744,407	2638,89
744,801	2631,48
745,195	2619,13
745,588	2604,3
745,982	2525,23
746,376	2426,4
746,769	2671,02
747,163	2554,88
747,556	2680,9
747,95	2695,72
748,343	2582,06
748,736	2621,6
749,13	2478,29
749,523	2626,54
749,916	2643,84
750,309	2656,19
750,702	2577,12
751,095	2609,24
751,487	2579,59
751,88	2547,47
752,273	2500,52
752,665	2545
753,058	2470,87
753,45	2515,35
753,843	2599,36
754,235	2554,88
754,627	2666,07
755,02	2643,84
755,412	2774,79
755,804	2698,19
756,196	2804,44
756,588	2851,39
756,98	2843,98
757,372	2905,75
757,764	2984,82
758,155	3147,89
758,547	3031,76
758,938	3251,67
759,33	3152,84
759,721	3167,66
760,113	3239,32
760,504	3202,25
760,895	3123,19
761,287	3128,13
761,678	3091,06
762,069	3009,52
762,46	2999,64
762,851	3078,71
763,242	3096,01
763,632	2910,69
764,023	2947,75
764,414	3002,11
764,804	3046,59
765,195	2809,38
765,586	3002,11
765,976	2853,86
766,366	2920,57
766,757	2799,5
767,147	2913,16
767,537	2846,45
767,927	2871,16
768,317	2908,22
768,707	2923,04
769,097	3044,12
769,487	3108,36
769,877	3194,84
770,266	3199,78
770,656	3315,91
771,045	3390,04
771,435	3639,6
771,824	3832,33
772,214	4062,12
772,603	4296,85
772,992	4403,1
773,382	4474,75
773,771	4912,1
774,16	4961,52
774,549	5193,78
774,938	5225,9
775,327	5381,56
775,715	5020,82
776,104	4897,27
776,493	4771,26
776,881	4679,84
777,27	4464,87
777,658	4215,31
778,047	3733,49
778,435	3523,47
778,823	3249,2
779,212	2984,82
779,6	2720,43
779,988	2525,23
780,376	2334,98
780,764	2253,44
781,152	2050,83
781,539	1998,94
781,927	1914,93
782,315	1865,51
782,702	1823,51
783,09	1791,38
783,477	1677,72
783,865	1833,39
784,252	1704,9
784,64	1850,68
785,027	1672,78
785,414	1764,2
785,801	1781,5
786,188	1662,9
786,575	1732,08
786,962	1662,9
787,349	1692,55
787,736	1727,14
788,122	1746,91
788,509	1662,9
788,895	1583,83
789,282	1682,67
789,668	1739,5
790,055	1650,54
790,441	1697,49
790,827	1969,29
791,213	1845,74
791,6	1853,16
791,986	1996,47
792,372	2045,88
792,757	2132,36
793,143	2040,94
793,529	2162,02
793,915	2134,84
794,3	2263,32
794,686	2134,84
795,072	2191,67
795,457	2055,77
795,842	2045,88
796,228	2050,83
796,613	2060,71
796,998	2006,35
797,383	1853,16
797,768	1912,46
798,153	1969,29
798,538	1939,64
798,923	1932,22
799,308	1939,64
799,692	1934,69
800,077	1929,75
800,462	1880,34
800,846	1914,93
801,231	1830,92
801,615	1774,09
801,999	1865,51
802,384	1746,91
802,768	1774,09
803,152	1796,33
803,536	1796,33
803,92	1759,26
804,304	1798,8
804,688	1830,92
805,072	1803,74
805,455	1828,45
805,839	1838,33
806,223	1808,68
806,606	1959,4
806,99	1994
807,373	1867,98
807,756	1897,63
808,139	2021,18
808,523	1944,58
808,906	1828,45
809,289	1907,51
809,672	1887,75
810,055	1776,56
810,438	1719,73
810,82	1803,74
811,203	1818,56
811,586	1808,68
811,968	1709,85
812,351	1853,16
812,733	1816,09
813,116	1882,81
813,498	1882,81
813,88	1947,05
814,263	1801,27
814,645	1912,46
815,027	1998,94
815,409	2033,53
815,791	2085,42
816,172	2078,01
816,554	2028,59
816,936	2023,65
817,318	2055,77
817,699	2060,71
818,081	2132,36
818,462	2162,02
818,844	2154,6
819,225	2090,36
819,606	2053,3
819,987	2134,84
820,368	2060,71
820,749	1981,64
821,13	1895,16
821,511	2011,29
821,892	1976,7
822,273	1885,28
822,654	1835,86
823,034	1907,51
823,415	1850,68
823,795	1872,92
824,176	1882,81
824,556	1808,68
824,937	1774,09
825,317	1717,26
825,697	1850,68
826,077	1776,56
826,457	1828,45
826,837	1776,56
827,217	1714,79
827,597	1771,62
827,977	1818,56
828,356	1719,73
828,736	1769,15
829,116	1781,5
829,495	1806,21
829,874	1630,78
830,254	1675,25
830,633	1630,78
831,012	1554,18
831,392	1571,48
831,771	1566,53
832,15	1494,88
832,529	1527
832,908	1465,23
833,286	1531,94
833,665	1485
834,044	1405,93
834,422	1376,28
834,801	1361,45
835,179	1349,1
835,558	1425,69
835,936	1287,33
836,314	1312,03
836,693	1289,8
837,071	1267,56
837,449	1208,26
837,827	1262,62
838,205	1215,67
838,583	1203,32
838,961	1183,55
839,338	1198,37
839,716	1171,19
840,094	1220,61
840,471	1215,67
840,849	1151,43
841,226	1193,43
841,603	1178,61
841,981	1144,01
842,358	1077,3
842,735	1069,89
843,112	1022,94
843,489	1015,53
843,866	1047,65
844,243	1092,13
844,62	971,05
844,996	995,76
845,373	988,35
845,749	993,29
846,126	1030,35
846,502	1020,47
846,879	963,64
847,255	988,35
847,631	961,17
848,008	961,17
848,384	980,94
848,76	911,75
849,136	968,58
849,512	1010,59
849,887	882,1
850,263	961,17
850,639	936,46
851,014	899,4
851,39	803,03
851,765	926,58
852,141	941,4
852,516	968,58
852,892	874,69
853,267	817,86
853,642	884,57
854,017	887,04
854,392	815,39
854,767	862,34
855,142	879,63
855,517	872,22
855,891	958,7
856,266	936,46
856,641	911,75
857,015	988,35
857,39	961,17
857,764	929,05
858,138	958,7
858,513	1000,7
858,887	973,52
859,261	1030,35
859,635	998,23
860,009	968,58
860,383	980,94
860,757	1040,24
861,13	1000,7
861,504	963,64
861,878	1003,17
862,251	1030,35
862,625	931,52
862,998	956,23
863,372	946,34
863,745	956,23
864,118	990,82
864,491	995,76
864,864	919,17
865,237	958,7
865,61	933,99
865,983	1010,59
866,356	978,47
866,729	978,47
867,101	1042,71
867,474	980,94
867,846	1050,12
868,219	953,76
868,591	1027,88
868,964	1050,12
869,336	951,29
869,708	1035,3
870,08	1064,95
870,452	988,35
870,824	1015,53
871,196	961,17
871,568	943,87
871,94	1032,83
872,311	933,99
872,683	909,28
873,055	985,88
873,426	971,05
873,797	980,94
874,169	1010,59
874,54	948,82
874,911	933,99
875,282	966,11
875,654	1010,59
876,025	1148,96
876,395	1047,65
876,766	1089,66
877,137	1126,72
877,508	1213,2
877,878	1242,85
878,249	1151,43
878,62	1247,79
878,99	1225,55
879,36	1240,38
879,731	1200,84
880,101	1267,56
880,471	1262,62
880,841	1240,38
881,211	1247,79
881,581	1302,15
881,951	1237,91
882,321	1309,56
882,691	1366,39
883,06	1272,5
883,43	1240,38
883,799	1277,44
884,169	1292,27
884,538	1381,22
884,908	1304,62
885,277	1415,81
885,646	1410,87
886,015	1497,35
886,384	1536,88
886,753	1368,86
887,122	1410,87
887,491	1442,99
887,86	1509,7
888,228	1514,65
888,597	1494,88
888,966	1393,57
889,334	1304,62
889,703	1314,51
890,071	1361,45
890,439	1302,15
890,807	1329,33
891,176	1250,26
891,544	1205,79
891,912	1195,9
892,28	1354,04
892,647	1247,79
893,015	1297,21
893,383	1042,71
893,751	1136,6
894,118	1121,78
894,486	1055,06
894,853	1148,96
895,22	1208,26
895,588	1151,43
895,955	1148,96
896,322	1052,59
896,689	1158,84
897,056	1104,48
897,423	1099,54
897,79	1237,91
898,157	1183,55
898,523	1173,67
898,89	1131,66
899,257	1168,72
899,623	1173,67
899,99	1141,54
900,356	1200,84
900,722	1139,07
901,089	1139,07
901,455	1171,19
901,821	1188,49
902,187	1232,97
902,553	1158,84
902,919	1198,37
903,285	1232,97
903,65	1198,37
904,016	1146,49
904,382	1193,43
904,747	1183,55
905,113	1141,54
905,478	1104,48
905,843	1126,72
906,208	1126,72
906,574	1092,13
906,939	1055,06
907,304	1082,24
907,669	1136,6
908,034	1067,42
908,398	976
908,763	1042,71
909,128	1025,41
909,492	958,7
909,857	1067,42
910,221	1052,59
910,586	1025,41
910,95	978,47
911,314	1027,88
911,679	1008,12
912,043	951,29
912,407	998,23
912,771	953,76
913,135	963,64
913,498	919,17
913,862	985,88
914,226	904,34
914,589	921,64
914,953	956,23
915,316	943,87
915,68	943,87
916,043	966,11
916,406	891,99
916,77	864,81
917,133	887,04
917,496	1005,65
917,859	904,34
918,222	921,64
918,584	896,93
918,947	840,1
919,31	845,04
919,673	817,86
920,035	842,57
920,398	889,51
920,76	845,04
921,122	847,51
921,485	859,86
921,847	901,87
922,209	859,86
922,571	812,92
922,933	761,03
923,295	859,86
923,657	738,79
924,018	859,86
924,38	837,63
924,742	859,86
925,103	849,98
925,465	864,81
925,826	859,86
926,187	815,39
926,549	879,63
926,91	775,85
927,271	877,16
927,632	810,45
927,993	852,45
928,354	854,92
928,715	822,8
929,075	785,74
929,436	820,33
929,797	798,09
930,157	807,98
930,518	684,43
930,878	812,92
931,238	701,73
931,598	805,51
931,959	701,73
932,319	748,67
932,679	728,91
933,039	691,84
933,399	694,32
933,758	662,19
934,118	746,2
934,478	667,14
934,837	617,72
935,197	664,67
935,556	632,54
935,916	738,79
936,275	664,67
936,634	615,25
936,993	630,07
937,353	667,14
937,712	677,02
938,07	615,25
938,429	654,78
938,788	568,3
939,147	649,84
939,506	560,89
939,864	585,6
940,223	659,72
940,581	615,25
940,939	533,71
941,298	548,53
941,656	580,66
942,014	627,6
942,372	600,42
942,73	518,88
943,088	541,12
943,446	568,3
943,804	526,3
944,161	533,71
944,519	555,95
944,877	523,83
945,234	541,12
945,592	600,42
945,949	588,07
946,306	570,77
946,663	563,36
947,021	568,3
947,378	568,3
947,735	560,89
948,091	553,48
948,448	528,77
948,805	605,36
949,162	585,6
949,518	528,77
949,875	558,42
950,231	536,18
950,588	555,95
950,944	526,3
951,3	526,3
951,657	432,4
952,013	531,24
952,369	551
952,725	496,65
953,081	580,66
953,436	548,53
953,792	528,77
954,148	533,71
954,503	521,35
954,859	513,94
955,214	506,53
955,57	481,82
955,925	548,53
956,28	494,17
956,635	489,23
956,991	506,53
957,346	484,29
957,701	422,52
958,055	553,48
958,41	462,05
958,765	501,59
959,12	513,94
959,474	449,7
959,829	489,23
960,183	439,82
960,537	518,88
960,892	444,76
961,246	476,88
961,6	491,7
961,954	442,29
962,308	447,23
962,662	588,07
963,016	506,53
963,37	464,52
963,723	459,58
964,077	467
964,43	467
964,784	491,7
965,137	504,06
965,491	457,11
965,844	467
966,197	481,82
966,55	444,76
966,903	454,64
967,256	467
967,609	476,88
967,962	479,35
968,315	444,76
968,667	489,23
969,02	491,7
969,372	417,58
969,725	442,29
970,077	474,41
970,429	437,34
970,782	509
971,134	486,76
971,486	484,29
971,838	464,52
972,19	496,65
972,542	486,76
972,893	496,65
973,245	434,87
973,597	420,05
973,948	462,05
974,3	496,65
974,651	437,34
975,003	449,7
975,354	486,76
975,705	420,05
976,056	437,34
976,407	462,05
976,758	447,23
977,109	407,69
977,46	486,76
977,811	402,75
978,161	444,76
978,512	447,23
978,862	427,46
979,213	417,58
979,563	429,93
979,913	474,41
980,264	427,46
980,614	506,53
980,964	476,88
981,314	402,75
981,664	459,58
982,014	496,65
982,363	471,94
982,713	516,41
983,063	494,17
983,412	402,75
983,762	481,82
984,111	439,82
984,461	491,7
984,81	385,46
985,159	449,7
985,508	449,7
985,857	427,46
986,206	424,99
986,555	410,17
986,904	467
987,253	412,64
987,601	427,46
987,95	405,22
988,298	442,29
988,647	476,88
988,995	420,05
989,343	392,87
989,692	464,52
990,04	474,41
990,388	452,17
990,736	437,34
991,084	415,11
991,432	429,93
991,779	449,7
992,127	405,22
992,475	462,05
992,822	464,52
993,17	437,34
993,517	427,46
993,864	390,4
994,212	444,76
994,559	405,22
994,906	432,4
995,253	402,75
995,6	457,11
995,947	454,64
996,293	415,11
996,64	420,05
996,987	345,92
997,333	358,28
997,68	449,7
998,026	415,11
998,373	368,16
998,719	395,34
999,065	417,58
999,411	392,87
999,757	434,87
1000,103	368,16
1000,449	439,82
1000,795	417,58
1001,141	429,93
1001,486	420,05
1001,832	338,51
1002,177	348,39
1002,523	506,53
1002,868	402,75
1003,213	407,69
1003,559	382,99
1003,904	432,4
1004,249	363,22
1004,594	424,99
1004,939	368,16
1005,283	424,99
1005,628	345,92
1005,973	405,22
1006,318	439,82
1006,662	348,39
1007,007	400,28
1007,351	405,22
1007,695	345,92
1008,039	397,81
1008,384	427,46
1008,728	452,17
1009,072	375,57
1009,416	415,11
1009,759	442,29
1010,103	412,64
1010,447	429,93
1010,791	415,11
1011,134	390,4
1011,478	355,81
1011,821	400,28
1012,164	392,87
1012,508	400,28
1012,851	422,52
1013,194	444,76
1013,537	437,34
1013,88	370,63
1014,223	486,76
1014,565	469,47
1014,908	400,28
1015,251	368,16
1015,593	422,52
1015,936	417,58
1016,278	452,17
1016,621	437,34
1016,963	447,23
1017,305	454,64
1017,647	442,29
1017,989	340,98
1018,331	452,17
1018,673	308,86
1019,015	390,4
1019,356	410,17
1019,698	338,51
1020,04	380,51
1020,381	397,81
1020,723	392,87
1021,064	353,34
1021,405	368,16
1021,746	427,46
1022,088	382,99
1022,429	454,64
1022,77	375,57
1023,11	437,34
1023,451	442,29
1023,792	442,29
1024,133	442,29
