Data from FLMS187131_13-28-13-710.txt Node
Date: Mon Dec 23 13:28:13 MSK 2024
User: FemtoLab1
Spectrometer: FLMS18713
Trigger mode: 0
Integration Time (sec): 4,681000E-2
Scans to average: 1
Electric dark correction enabled: true
Nonlinearity correction enabled: false
Boxcar width: 0
XAxis mode: Wavelengths
Number of Pixels in Spectrum: 2048
>>>>>Begin Spectral Data<<<<<
190,252	-30,73
190,715	-30,73
191,177	-30,73
191,64	-99,92
192,102	-122,15
192,565	-114,74
193,027	-70,27
193,49	-139,45
193,952	-109,8
194,415	-70,27
194,877	-8,49
195,339	-30,73
195,802	38,45
196,264	-25,79
196,726	23,63
197,188	50,81
197,65	92,81
198,112	73,05
198,574	75,52
199,036	139,76
199,498	75,52
199,96	179,29
200,421	199,06
200,883	285,54
201,345	297,89
201,807	364,61
202,268	312,72
202,73	347,31
203,191	344,84
203,653	352,25
204,114	389,32
204,576	423,91
205,037	426,38
205,498	443,68
205,96	414,03
206,421	431,32
206,882	409,08
207,343	485,68
207,804	493,09
208,265	414,03
208,726	468,39
209,187	480,74
209,648	475,8
210,109	448,62
210,57	512,86
211,031	470,86
211,492	483,21
211,952	416,5
212,413	401,67
212,874	493,09
213,334	502,98
213,795	433,79
214,255	411,56
214,716	453,56
215,176	448,62
215,636	428,85
216,097	483,21
216,557	478,27
217,017	468,39
217,477	436,26
217,938	460,97
218,398	409,08
218,858	480,74
219,318	451,09
219,778	475,8
220,238	483,21
220,698	530,16
221,157	488,15
221,617	409,08
222,077	446,15
222,537	414,03
222,996	364,61
223,456	386,85
223,915	421,44
224,375	510,39
224,834	423,91
225,294	379,43
225,753	475,8
226,213	463,44
226,672	384,38
227,131	473,33
227,59	465,91
228,05	485,68
228,509	384,38
228,968	468,39
229,427	463,44
229,886	451,09
230,345	411,56
230,804	433,79
231,263	411,56
231,721	418,97
232,18	438,73
232,639	448,62
233,098	468,39
233,556	384,38
234,015	480,74
234,473	470,86
234,932	406,61
235,39	446,15
235,849	428,85
236,307	423,91
236,765	448,62
237,224	456,03
237,682	416,5
238,14	426,38
238,598	423,91
239,056	490,62
239,514	406,61
239,972	391,79
240,43	456,03
240,888	404,14
241,346	414,03
241,804	436,26
242,262	428,85
242,72	396,73
243,177	374,49
243,635	468,39
244,093	465,91
244,55	475,8
245,008	465,91
245,465	418,97
245,923	456,03
246,38	505,45
246,837	391,79
247,295	411,56
247,752	396,73
248,209	381,9
248,666	416,5
249,123	448,62
249,58	384,38
250,037	451,09
250,494	458,5
250,951	446,15
251,408	441,21
251,865	404,14
252,322	379,43
252,779	396,73
253,235	446,15
253,692	493,09
254,149	483,21
254,605	515,33
255,062	490,62
255,518	441,21
255,975	443,68
256,431	473,33
256,887	446,15
257,344	399,2
257,8	483,21
258,256	453,56
258,712	468,39
259,168	401,67
259,625	490,62
260,081	507,92
260,537	374,49
260,992	396,73
261,448	394,26
261,904	527,69
262,36	441,21
262,816	478,27
263,272	465,91
263,727	488,15
264,183	525,22
264,638	493,09
265,094	441,21
265,549	441,21
266,005	475,8
266,46	451,09
266,916	369,55
267,371	438,73
267,826	473,33
268,281	505,45
268,737	443,68
269,192	411,56
269,647	480,74
270,102	414,03
270,557	490,62
271,012	458,5
271,467	399,2
271,921	458,5
272,376	418,97
272,831	488,15
273,286	421,44
273,74	525,22
274,195	490,62
274,649	396,73
275,104	485,68
275,558	468,39
276,013	426,38
276,467	433,79
276,922	436,26
277,376	460,97
277,83	520,27
278,284	451,09
278,739	389,32
279,193	490,62
279,647	478,27
280,101	443,68
280,555	433,79
281,009	426,38
281,462	478,27
281,916	416,5
282,37	473,33
282,824	453,56
283,278	396,73
283,731	362,14
284,185	416,5
284,638	448,62
285,092	463,44
285,545	544,98
285,999	414,03
286,452	416,5
286,905	362,14
287,359	478,27
287,812	451,09
288,265	458,5
288,718	495,56
289,171	483,21
289,624	485,68
290,077	389,32
290,53	460,97
290,983	431,32
291,436	438,73
291,889	426,38
292,342	396,73
292,794	448,62
293,247	483,21
293,7	540,04
294,152	446,15
294,605	451,09
295,057	490,62
295,51	453,56
295,962	438,73
296,414	456,03
296,867	468,39
297,319	418,97
297,771	478,27
298,223	465,91
298,675	441,21
299,128	490,62
299,58	441,21
300,032	460,97
300,483	431,32
300,935	448,62
301,387	473,33
301,839	418,97
302,291	488,15
302,742	512,86
303,194	436,26
303,646	438,73
304,097	451,09
304,549	431,32
305	433,79
305,451	485,68
305,903	485,68
306,354	448,62
306,805	468,39
307,257	414,03
307,708	451,09
308,159	401,67
308,61	485,68
309,061	386,85
309,512	349,78
309,963	502,98
310,414	443,68
310,865	396,73
311,315	460,97
311,766	446,15
312,217	493,09
312,668	473,33
313,118	470,86
313,569	453,56
314,019	441,21
314,47	428,85
314,92	428,85
315,37	507,92
315,821	448,62
316,271	448,62
316,721	470,86
317,171	485,68
317,622	436,26
318,072	475,8
318,522	456,03
318,972	517,8
319,422	456,03
319,872	485,68
320,321	505,45
320,771	451,09
321,221	411,56
321,671	495,56
322,12	406,61
322,57	460,97
323,019	498,04
323,469	453,56
323,918	460,97
324,368	406,61
324,817	507,92
325,267	446,15
325,716	493,09
326,165	522,74
326,614	456,03
327,063	431,32
327,512	451,09
327,961	478,27
328,41	493,09
328,859	451,09
329,308	512,86
329,757	463,44
330,206	480,74
330,655	448,62
331,103	448,62
331,552	453,56
332,001	458,5
332,449	483,21
332,898	520,27
333,346	485,68
333,794	443,68
334,243	510,39
334,691	498,04
335,139	488,15
335,588	465,91
336,036	527,69
336,484	433,79
336,932	500,51
337,38	460,97
337,828	500,51
338,276	441,21
338,724	572,16
339,172	547,45
339,619	404,14
340,067	374,49
340,515	418,97
340,962	478,27
341,41	451,09
341,858	453,56
342,305	448,62
342,753	480,74
343,2	460,97
343,647	502,98
344,095	463,44
344,542	401,67
344,989	498,04
345,436	498,04
345,883	493,09
346,33	488,15
346,777	488,15
347,224	535,1
347,671	510,39
348,118	473,33
348,565	490,62
349,012	475,8
349,458	451,09
349,905	423,91
350,352	423,91
350,798	488,15
351,245	490,62
351,691	409,08
352,138	453,56
352,584	483,21
353,03	470,86
353,477	537,57
353,923	470,86
354,369	463,44
354,815	409,08
355,261	527,69
355,707	520,27
356,153	443,68
356,599	423,91
357,045	495,56
357,491	465,91
357,937	458,5
358,382	438,73
358,828	448,62
359,274	441,21
359,719	480,74
360,165	465,91
360,61	515,33
361,056	441,21
361,501	458,5
361,947	468,39
362,392	411,56
362,837	406,61
363,282	478,27
363,727	480,74
364,173	510,39
364,618	542,51
365,063	505,45
365,508	500,51
365,952	428,85
366,397	458,5
366,842	418,97
367,287	406,61
367,732	468,39
368,176	490,62
368,621	391,79
369,065	456,03
369,51	436,26
369,954	411,56
370,399	468,39
370,843	443,68
371,287	480,74
371,732	480,74
372,176	384,38
372,62	421,44
373,064	394,26
373,508	463,44
373,952	488,15
374,396	468,39
374,84	438,73
375,284	433,79
375,728	438,73
376,172	411,56
376,615	406,61
377,059	490,62
377,503	473,33
377,946	465,91
378,39	428,85
378,833	411,56
379,277	547,45
379,72	502,98
380,163	540,04
380,607	485,68
381,05	502,98
381,493	456,03
381,936	443,68
382,379	502,98
382,822	520,27
383,265	433,79
383,708	396,73
384,151	428,85
384,594	498,04
385,037	498,04
385,479	453,56
385,922	525,22
386,365	416,5
386,807	396,73
387,25	441,21
387,692	483,21
388,135	367,08
388,577	500,51
389,019	411,56
389,461	438,73
389,904	384,38
390,346	391,79
390,788	443,68
391,23	478,27
391,672	515,33
392,114	483,21
392,556	478,27
392,998	443,68
393,44	406,61
393,881	465,91
394,323	448,62
394,765	470,86
395,206	428,85
395,648	569,69
396,09	510,39
396,531	446,15
396,972	488,15
397,414	406,61
397,855	493,09
398,296	443,68
398,738	500,51
399,179	451,09
399,62	480,74
400,061	414,03
400,502	488,15
400,943	507,92
401,384	428,85
401,825	404,14
402,265	453,56
402,706	436,26
403,147	485,68
403,588	520,27
404,028	438,73
404,469	468,39
404,909	441,21
405,35	416,5
405,79	483,21
406,23	510,39
406,671	416,5
407,111	488,15
407,551	465,91
407,991	527,69
408,431	448,62
408,871	441,21
409,311	451,09
409,751	460,97
410,191	465,91
410,631	535,1
411,071	488,15
411,511	438,73
411,95	448,62
412,39	411,56
412,83	446,15
413,269	470,86
413,709	490,62
414,148	421,44
414,587	423,91
415,027	490,62
415,466	379,43
415,905	414,03
416,345	453,56
416,784	448,62
417,223	458,5
417,662	490,62
418,101	522,74
418,54	478,27
418,979	495,56
419,417	505,45
419,856	517,8
420,295	507,92
420,734	406,61
421,172	460,97
421,611	510,39
422,049	485,68
422,488	441,21
422,926	515,33
423,364	414,03
423,803	448,62
424,241	470,86
424,679	433,79
425,117	446,15
425,555	483,21
425,994	480,74
426,432	384,38
426,87	458,5
427,307	441,21
427,745	527,69
428,183	414,03
428,621	458,5
429,058	515,33
429,496	512,86
429,934	510,39
430,371	552,39
430,809	456,03
431,246	505,45
431,684	502,98
432,121	473,33
432,558	488,15
432,995	475,8
433,433	465,91
433,87	557,34
434,307	552,39
434,744	609,22
435,181	500,51
435,618	480,74
436,055	456,03
436,491	567,22
436,928	591,93
437,365	517,8
437,801	537,57
438,238	525,22
438,675	480,74
439,111	542,51
439,548	505,45
439,984	495,56
440,42	535,1
440,857	567,22
441,293	522,74
441,729	535,1
442,165	480,74
442,601	544,98
443,037	564,75
443,473	522,74
443,909	495,56
444,345	507,92
444,781	485,68
445,217	569,69
445,652	577,1
446,088	515,33
446,524	549,92
446,959	619,11
447,395	562,28
447,83	554,87
448,266	604,28
448,701	557,34
449,136	542,51
449,572	527,69
450,007	584,52
450,442	589,46
450,877	584,52
451,312	502,98
451,747	535,1
452,182	485,68
452,617	601,81
453,052	540,04
453,486	522,74
453,921	460,97
454,356	584,52
454,79	596,87
455,225	512,86
455,66	611,7
456,094	552,39
456,528	594,4
456,963	515,33
457,397	527,69
457,831	547,45
458,265	458,5
458,7	574,63
459,134	510,39
459,568	569,69
460,002	490,62
460,436	490,62
460,87	554,87
461,303	547,45
461,737	532,63
462,171	542,51
462,605	577,1
463,038	515,33
463,472	500,51
463,905	537,57
464,339	517,8
464,772	510,39
465,205	554,87
465,639	517,8
466,072	525,22
466,505	495,56
466,938	488,15
467,371	490,62
467,804	530,16
468,237	549,92
468,67	485,68
469,103	505,45
469,536	537,57
469,969	493,09
470,402	527,69
470,834	446,15
471,267	510,39
471,699	554,87
472,132	532,63
472,564	475,8
472,997	500,51
473,429	502,98
473,861	619,11
474,294	562,28
474,726	480,74
475,158	473,33
475,59	547,45
476,022	522,74
476,454	473,33
476,886	468,39
477,318	517,8
477,75	485,68
478,181	517,8
478,613	478,27
479,045	554,87
479,476	515,33
479,908	530,16
480,339	520,27
480,771	549,92
481,202	540,04
481,634	495,56
482,065	478,27
482,496	498,04
482,927	552,39
483,358	507,92
483,789	540,04
484,22	490,62
484,651	520,27
485,082	517,8
485,513	540,04
485,944	483,21
486,375	512,86
486,805	547,45
487,236	544,98
487,667	542,51
488,097	493,09
488,527	493,09
488,958	460,97
489,388	544,98
489,819	557,34
490,249	557,34
490,679	512,86
491,109	498,04
491,539	564,75
491,969	456,03
492,399	594,4
492,829	473,33
493,259	525,22
493,689	540,04
494,119	505,45
494,548	584,52
494,978	562,28
495,408	579,57
495,837	586,99
496,267	515,33
496,696	604,28
497,126	542,51
497,555	468,39
497,984	604,28
498,413	520,27
498,843	564,75
499,272	567,22
499,701	564,75
500,13	604,28
500,559	582,05
500,988	549,92
501,417	515,33
501,845	609,22
502,274	554,87
502,703	651,23
503,131	626,52
503,56	574,63
503,988	591,93
504,417	619,11
504,845	577,1
505,274	628,99
505,702	544,98
506,13	636,4
506,558	577,1
506,987	579,57
507,415	572,16
507,843	609,22
508,271	678,41
508,699	628,99
509,126	666,06
509,554	661,11
509,982	695,71
510,41	675,94
510,837	740,18
511,265	797,01
511,693	784,66
512,12	851,37
512,547	881,02
512,975	888,43
513,402	937,85
513,829	969,97
514,257	994,68
514,684	1063,87
515,111	1120,7
515,538	1273,89
515,965	1345,55
516,392	1535,8
516,819	1634,64
517,246	1859,49
517,672	1857,02
518,099	2071,98
518,526	2314,13
518,952	2408,02
519,379	2689,7
519,805	2934,32
520,232	3398,84
520,658	3638,52
521,085	3883,13
521,511	4310,59
521,937	4718,29
522,363	4965,38
522,789	5427,43
523,215	5929,02
523,641	6302,12
524,067	6875,36
524,493	7458,49
524,919	8239,28
525,345	8800,17
525,771	9299,29
526,196	10085,03
526,622	10702,75
527,047	11597,2
527,473	12296,46
527,898	13153,85
528,324	14031,01
528,749	14898,29
529,174	15548,13
529,6	16689,68
530,025	18006,65
530,45	18826,98
530,875	19877,1
531,3	21236,08
531,725	22251,61
532,15	23047,23
532,575	24485,28
532,999	26054,29
533,424	27371,26
533,849	28826,61
534,273	30351,14
534,698	31341,96
535,122	33254,42
535,547	34554,1
535,971	36444,32
536,396	37323,95
536,82	38453,14
537,244	40244,52
537,668	42213,81
538,092	42683,27
538,517	44279,46
538,941	45443,24
539,364	46733,04
539,788	47768,33
540,212	48610,9
540,636	49552,3
541,06	50152,73
541,483	50407,23
541,907	51563,6
542,331	52151,66
542,754	52781,74
543,178	52700,2
543,601	53046,12
544,024	54009,76
544,448	53903,51
544,871	54242,02
545,294	54266,73
545,717	54953,64
546,14	54639,83
546,563	54709,02
546,986	55482,4
547,409	55218,02
547,832	55477,46
548,255	55003,05
548,677	54785,62
549,1	54941,28
549,522	54827,62
549,945	54686,78
550,368	54632,42
550,79	54444,63
551,212	53878,8
551,635	53678,66
552,057	53120,25
552,479	52717,49
552,901	52099,78
553,323	51514,18
553,745	51306,62
554,167	51116,37
554,589	50019,3
555,011	49290,39
555,433	48534,3
555,855	47946,24
556,277	48017,89
556,698	46574,9
557,12	46112,85
557,541	45635,97
557,963	44546,31
558,384	44220,16
558,806	43493,72
559,227	42320,05
559,648	41675,16
560,069	41096,97
560,49	40785,64
560,912	40229,69
561,333	39503,26
561,754	38707,64
562,174	38374,07
562,595	38223,34
563,016	38062,74
563,437	37264,65
563,858	36758,12
564,278	36449,26
564,699	36071,21
565,119	35789,53
565,54	35636,34
565,96	34860,48
566,38	34823,42
566,801	34699,88
567,221	34756,71
567,641	33983,32
568,061	34267,48
568,481	34405,84
568,901	34121,69
569,321	33864,72
569,741	33610,22
570,161	33209,94
570,581	32864,02
571,001	32893,67
571,42	32794,83
571,84	32520,57
572,259	32483,5
572,679	31539,63
573,098	31425,97
573,518	31351,84
573,937	30304,19
574,356	29936,03
574,775	29251,6
575,195	29031,69
575,614	28915,56
576,033	28332,43
576,452	27578,82
576,871	27158,77
577,29	26360,68
577,708	25691,07
578,127	25073,35
578,546	24586,59
578,964	24307,38
579,383	23776,14
579,801	23094,18
580,22	22301,03
580,638	21979,82
581,057	21611,66
581,475	21124,89
581,893	21050,77
582,311	20450,35
582,73	19800,51
583,148	19508,94
583,566	19417,52
583,984	19227,26
584,401	18834,39
584,819	18379,75
585,237	17947,35
585,655	17601,43
586,072	17292,57
586,49	17181,38
586,908	16672,38
587,325	16504,36
587,742	16252,33
588,16	16158,44
588,577	16146,08
588,994	15713,68
589,412	15506,13
589,829	15464,12
590,246	15140,44
590,663	15347,99
591,08	15170,09
591,497	15076,19
591,914	14972,42
592,33	15288,69
592,747	15214,56
593,164	15120,67
593,58	15404,82
593,997	15318,34
594,413	15817,46
594,83	15829,81
595,246	16010,18
595,663	15965,71
596,079	16365,99
596,495	16482,12
596,911	16899,7
597,327	17156,67
597,743	17381,52
598,159	17517,42
598,575	17967,12
598,991	18065,95
599,407	17986,88
599,823	18362,46
600,238	18656,49
600,654	18881,34
601,07	19172,9
601,485	19133,37
601,901	19311,27
602,316	19637,43
602,731	19546,01
603,147	19642,37
603,562	19790,62
603,977	20378,69
604,392	20161,25
604,807	20309,51
605,222	20672,72
605,637	20287,27
606,052	20512,12
606,467	20734,5
606,882	20517,06
607,296	20166,2
607,711	19983,35
608,125	20297,15
608,54	20403,4
608,954	20685,08
609,369	20465,17
609,783	20225,5
610,197	20546,71
610,612	20702,38
611,026	20630,72
611,44	20813,56
611,854	20791,33
612,268	21391,75
612,682	21292,91
613,096	21443,64
613,51	21619,07
613,923	21727,79
614,337	21799,44
614,751	21829,09
615,164	22034,18
615,578	21977,35
615,991	21572,12
616,405	21604,24
616,818	22128,07
617,231	21423,87
617,645	21436,22
618,058	22088,54
618,471	21515,29
618,884	21624,01
619,297	21703,08
619,71	21722,85
620,123	21871,1
620,536	22098,42
620,948	22049
621,361	22355,39
621,774	22884,16
622,186	22711,2
622,599	23304,21
623,011	23333,86
623,424	23748,96
623,836	24117,12
624,248	24233,25
624,661	24312,32
625,073	24865,8
625,485	24633,54
625,897	25179,6
626,309	25429,16
626,721	25686,13
627,133	25567,53
627,545	25990,05
627,956	26368,09
628,368	26427,39
628,78	26763,43
629,191	26723,9
629,603	26961,1
630,014	27139
630,426	27059,93
630,837	27361,38
631,248	27850,61
631,66	28087,82
632,071	27499,75
632,482	28147,12
632,893	28386,79
633,304	28621,53
633,715	29590,11
634,126	29256,54
634,536	29367,73
634,947	30269,6
635,358	30538,93
635,769	30652,59
636,179	30783,54
636,59	31574,22
637	31784,25
637,41	32021,45
637,821	32384,67
638,231	32505,74
638,641	32723,18
639,051	33375,49
639,462	32960,38
639,872	33261,83
640,282	33553,39
640,691	33276,65
641,101	33444,67
641,511	33474,32
641,921	33822,72
642,331	33538,57
642,74	33256,89
643,15	33276,65
643,559	33350,78
643,969	33224,77
644,378	33585,51
644,787	33622,58
645,197	33681,88
645,606	33501,5
646,015	33479,27
646,424	33412,55
646,833	33148,17
647,242	33840,01
647,651	33227,24
648,06	33847,43
648,469	33434,79
648,877	33815,31
649,286	33405,14
649,694	33395,26
650,103	33578,1
650,512	33306,31
650,92	33526,21
651,328	33400,2
651,737	33899,31
652,145	33377,96
652,553	33731,3
652,961	33649,76
653,369	33595,4
653,777	33746,12
654,185	33718,94
654,593	33726,35
655,001	34339,13
655,409	34223
655,816	34282,3
656,224	33854,84
656,631	33649,76
657,039	33402,67
657,446	33276,65
657,854	33479,27
658,261	33086,4
658,668	32426,67
659,076	32357,49
659,483	32485,97
659,89	32142,52
660,297	31912,73
660,704	31586,58
661,111	31902,85
661,518	31640,94
661,924	31198,65
662,331	31201,12
662,738	31057,81
663,144	30667,41
663,551	30625,41
663,957	30183,12
664,364	29333,14
664,77	29019,34
665,177	28117,47
665,583	28097,7
665,989	27791,31
666,395	27598,59
666,801	27022,87
667,207	26585,53
667,613	26476,81
668,019	26214,9
668,425	26444,69
668,83	26410,09
669,236	26407,62
669,642	26081,47
670,047	26024,64
670,453	26481,75
670,858	26523,75
671,264	26377,97
671,669	26279,14
672,074	26148,18
672,48	26247,02
672,885	26116,06
673,29	25972,75
673,695	25839,32
674,1	25972,75
674,505	25883,8
674,909	25214,19
675,314	25819,56
675,719	25401,98
676,124	25043,7
676,528	24969,58
676,933	24932,51
677,337	25051,11
677,742	24937,45
678,146	24900,39
678,55	24972,05
678,955	24687,9
679,359	24722,49
679,763	25100,53
680,167	24552
680,571	24643,42
680,975	24628,59
681,379	24477,87
681,782	24109,71
682,186	23914,51
682,59	23820,62
682,993	23655,07
683,397	23422,81
683,8	23272,08
684,204	22696,37
684,607	22753,2
685,011	22239,26
685,414	22167,6
685,817	22034,18
686,22	21829,09
686,623	21473,29
687,026	21250,91
687,429	21011,23
687,832	20450,35
688,235	20437,99
688,638	20467,64
689,04	20302,09
689,443	20289,74
689,845	19674,49
690,248	19662,14
690,65	19479,29
691,053	19348,34
691,455	19237,15
691,857	18995
692,26	18488,47
692,662	18278,45
693,064	17897,93
693,466	17682,97
693,868	17468
694,27	17023,24
694,671	16788,51
695,073	16667,44
695,475	16452,47
695,877	16274,57
696,278	15523,42
696,68	15698,85
697,081	15212,09
697,483	14834,05
697,884	14527,66
698,285	14547,43
698,686	14021,13
699,087	14031,01
699,489	13697,45
699,89	13549,19
700,291	13193,39
700,691	13213,15
701,092	13035,25
701,493	12887
701,894	12887
702,294	12753,57
702,695	12580,61
703,096	12536,14
703,496	12575,67
703,896	12639,91
704,297	12800,52
704,697	12541,08
705,097	12879,59
705,497	13008,07
705,897	12783,22
706,297	13299,64
706,697	13227,98
707,097	13423,18
707,497	13517,07
707,897	13744,39
708,297	13855,58
708,696	13853,11
709,096	14278,1
709,495	14221,27
709,895	14349,76
710,294	14270,69
710,694	14468,36
711,093	14463,42
711,492	14527,66
711,891	14325,05
712,29	14349,76
712,689	14339,87
713,088	14238,57
713,487	14364,58
713,886	14016,19
714,285	13984,07
714,684	13959,36
715,082	13850,64
715,481	13497,31
715,879	13309,52
716,278	13045,14
716,676	13047,61
717,075	12741,22
717,473	12531,19
717,871	12037,02
718,269	12007,37
718,667	11925,83
719,065	11500,84
719,463	11374,82
719,861	11103,03
720,259	10920,18
720,657	10796,64
721,054	10559,44
721,452	10238,22
721,85	10112,21
722,247	9709,46
722,645	9944,19
723,042	9583,44
723,439	9398,12
723,837	8950,9
724,234	8753,23
724,631	8600,03
725,028	8562,97
725,425	8325,77
725,822	8128,1
726,219	7797
726,616	7572,15
727,012	7344,83
727,409	6944,55
727,806	6776,53
728,202	6403,43
728,599	6109,39
728,995	5807,94
729,392	5429,9
729,788	5197,64
730,184	4970,32
730,58	4651,58
730,977	4377,31
731,373	4261,18
731,769	4065,98
732,165	3799,12
732,56	3680,52
732,956	3547,09
733,352	3430,96
733,748	3401,31
734,143	3164,11
734,539	3178,93
734,934	3097,4
735,33	3020,8
735,725	3020,8
736,12	3010,91
736,516	3087,51
736,911	2966,44
737,306	2968,91
737,701	3052,92
738,096	3146,81
738,491	3164,11
738,886	3208,58
739,28	3173,99
739,675	3250,59
740,07	3332,13
740,464	3361,78
740,859	3512,5
741,253	3435,91
741,648	3433,43
742,042	3495,21
742,437	3524,86
742,831	3559,45
743,225	3532,27
743,619	3811,48
744,013	4125,28
744,407	4120,34
744,801	4191,99
745,195	4280,94
745,588	4322,95
745,982	4369,9
746,376	4481,09
746,769	4710,88
747,163	4878,9
747,556	5294
747,95	5442,26
748,343	6040,21
748,736	6200,81
749,13	6403,43
749,523	6714,76
749,916	6892,66
750,309	6964,31
750,702	6712,28
751,095	6522,03
751,487	6104,45
751,88	5694,28
752,273	5098,8
752,665	4780,06
753,058	4392,13
753,45	3907,84
753,843	3712,64
754,235	3364,25
754,627	3290,12
755,02	3198,7
755,412	3005,97
755,804	2870,07
756,196	2719,35
756,588	2716,88
756,98	2791,01
757,372	2600,75
757,764	2605,69
758,155	2526,62
758,547	2489,56
758,938	2585,92
759,33	2516,74
759,721	2464,85
760,113	2598,28
760,504	2489,56
760,895	2509,33
761,287	2459,91
761,678	2615,57
762,069	2652,64
762,46	2370,96
762,851	2351,19
763,242	2247,41
763,632	2094,22
764,023	2101,63
764,414	2039,86
764,804	1881,73
765,195	1938,56
765,586	1857,02
765,976	1906,43
766,366	1973,15
766,757	2175,76
767,147	2205,41
767,537	2212,82
767,927	2262,24
768,317	2326,48
768,707	2309,19
769,097	2328,95
769,487	2227,65
769,877	2193,06
770,266	2190,58
770,656	2089,28
771,045	2074,45
771,435	2071,98
771,824	2064,57
772,214	2163,4
772,603	2131,28
772,992	2143,64
773,382	2168,35
773,771	2109,05
774,16	2089,28
774,549	2138,7
774,938	2306,72
775,327	2294,36
775,715	2155,99
776,104	2210,35
776,493	2155,99
776,881	2071,98
777,27	2042,33
777,658	2002,8
778,047	1995,39
778,435	1815,01
778,823	1916,32
779,212	1807,6
779,6	1847,13
779,988	1857,02
780,376	1911,38
780,764	1936,08
781,152	2005,27
781,539	2064,57
781,927	2168,35
782,315	2106,57
782,702	2237,53
783,09	2341,31
783,477	2370,96
783,865	2674,88
784,252	2585,92
784,64	2679,82
785,027	2766,3
785,414	2672,41
785,801	2726,76
786,188	2692,17
786,575	2724,29
786,962	2736,65
787,349	2704,53
787,736	2637,81
788,122	2645,23
788,509	2756,41
788,895	2731,71
789,282	2647,7
789,668	2716,88
790,055	2662,52
790,441	2662,52
790,827	2620,52
791,213	2711,94
791,6	2682,29
791,986	2669,93
792,372	2699,58
792,757	2615,57
793,143	2640,28
793,529	2645,23
793,915	2689,7
794,3	2521,68
794,686	2761,36
795,072	2442,61
795,457	2558,74
795,842	2561,22
796,228	2645,23
796,613	2556,27
796,998	2516,74
797,383	2425,32
797,768	2477,21
798,153	2529,09
798,538	2529,09
798,923	2445,08
799,308	2462,38
799,692	2440,14
800,077	2331,42
800,462	2410,49
800,846	2299,3
801,231	2373,43
801,615	2400,61
801,999	2277,07
802,384	2198
802,768	2272,12
803,152	2284,48
803,536	2212,82
803,92	2185,64
804,304	2299,3
804,688	2237,53
805,072	2358,6
805,455	2326,48
805,839	2215,29
806,223	2282,01
806,606	2151,05
806,99	2198
807,373	2215,29
807,756	2333,9
808,139	2212,82
808,523	2198
808,906	2067,04
809,289	2042,33
809,672	2076,92
810,055	1975,62
810,438	2057,16
810,82	2052,22
811,203	2025,04
811,586	1953,38
811,968	2059,63
812,351	2136,23
812,733	2079,4
813,116	2099,16
813,498	2099,16
813,88	2116,46
814,263	2121,4
814,645	2062,1
815,027	1997,86
815,409	1963,26
815,791	1879,25
816,172	1921,26
816,554	1881,73
816,936	1874,31
817,318	1817,48
817,699	1923,73
818,081	1745,83
818,462	1731
818,844	1852,07
819,225	1743,36
819,606	1777,95
819,987	1802,66
820,368	1839,72
820,749	1760,65
821,13	1691,47
821,511	1728,53
821,892	1686,53
822,273	1735,94
822,654	1592,63
823,034	1622,28
823,415	1669,23
823,795	1580,28
824,176	1486,39
824,556	1518,51
824,937	1483,91
825,317	1496,27
825,697	1506,15
826,077	1464,15
826,457	1402,38
826,837	1543,22
827,217	1483,91
827,597	1483,91
827,977	1375,2
828,356	1422,14
828,736	1350,49
829,116	1355,43
829,495	1320,84
829,874	1335,66
830,254	1328,25
830,633	1298,6
831,012	1315,9
831,392	1288,72
831,771	1231,89
832,15	1246,71
832,529	1261,54
832,908	1182,47
833,286	1236,83
833,665	1214,59
834,044	1207,18
834,422	1175,06
834,801	1160,23
835,179	1202,23
835,558	1165,17
835,936	1108,34
836,314	1135,52
836,693	1088,57
837,071	1071,28
837,449	1135,52
837,827	1083,63
838,205	1071,28
838,583	1014,45
838,961	1009,51
839,338	1076,22
839,716	1086,1
840,094	1019,39
840,471	1086,1
840,849	989,74
841,226	997,15
841,603	997,15
841,981	1053,98
842,358	1061,39
842,735	1009,51
843,112	962,56
843,489	992,21
843,866	1046,57
844,243	1014,45
844,62	984,8
844,996	999,62
845,373	905,73
845,749	937,85
846,126	1002,09
846,502	937,85
846,879	984,8
847,255	923,03
847,631	982,33
848,008	994,68
848,384	937,85
848,76	918,08
849,136	979,86
849,512	960,09
849,887	1056,45
850,263	893,38
850,639	972,44
851,014	1058,92
851,39	920,56
851,765	1056,45
852,141	940,32
852,516	1039,16
852,892	979,86
853,267	930,44
853,642	918,08
854,017	974,91
854,392	974,91
854,767	1034,22
855,142	935,38
855,517	1007,04
855,891	843,96
856,266	888,43
856,641	972,44
857,015	1002,09
857,39	1051,51
857,764	969,97
858,138	908,2
858,513	984,8
858,887	935,38
859,261	950,21
859,635	905,73
860,009	972,44
860,383	858,78
860,757	937,85
861,13	861,25
861,504	809,37
861,878	940,32
862,251	863,73
862,625	903,26
862,998	836,55
863,372	819,25
863,745	915,61
864,118	811,84
864,491	816,78
864,864	824,19
865,237	858,78
865,61	873,61
865,983	797,01
866,356	824,19
866,729	811,84
867,101	814,31
867,474	890,9
867,846	878,55
868,219	871,14
868,591	920,56
868,964	866,2
869,336	915,61
869,708	908,2
870,08	782,19
870,452	816,78
870,824	903,26
871,196	834,07
871,568	893,38
871,94	881,02
872,311	952,68
872,683	905,73
873,055	969,97
873,426	861,25
873,797	851,37
874,169	920,56
874,54	932,91
874,911	945,26
875,282	910,67
875,654	925,5
876,025	851,37
876,395	935,38
876,766	888,43
877,137	915,61
877,508	932,91
877,878	920,56
878,249	883,49
878,62	898,32
878,99	863,73
879,36	816,78
879,731	792,07
880,101	915,61
880,471	868,67
880,841	920,56
881,211	878,55
881,581	945,26
881,951	923,03
882,321	898,32
882,691	866,2
883,06	863,73
883,43	977,39
883,799	969,97
884,169	932,91
884,538	932,91
884,908	974,91
885,277	952,68
885,646	940,32
886,015	979,86
886,384	1049,04
886,753	952,68
887,122	1123,17
887,491	1098,46
887,86	1039,16
888,228	1039,16
888,597	1162,7
888,966	1016,92
889,334	1063,87
889,703	1142,93
890,071	1034,22
890,439	1056,45
890,807	1036,69
891,176	1016,92
891,544	1076,22
891,912	1100,93
892,28	1016,92
892,647	992,21
893,015	1002,09
893,383	937,85
893,751	945,26
894,118	873,61
894,486	935,38
894,853	876,08
895,22	794,54
895,588	839,02
895,955	885,96
896,322	804,42
896,689	824,19
897,056	890,9
897,423	853,84
897,79	829,13
898,157	747,59
898,523	846,43
898,89	856,31
899,257	797,01
899,623	839,02
899,99	843,96
900,356	829,13
900,722	913,14
901,089	829,13
901,455	799,48
901,821	930,44
902,187	858,78
902,553	836,55
902,919	809,37
903,285	839,02
903,65	846,43
904,016	819,25
904,382	779,72
904,747	685,82
905,113	853,84
905,478	809,37
905,843	883,49
906,208	804,42
906,574	861,25
906,939	787,13
907,304	720,41
907,669	826,66
908,034	801,95
908,398	767,36
908,763	814,31
909,128	774,77
909,492	809,37
909,857	787,13
910,221	700,65
910,586	688,29
910,95	792,07
911,314	750,06
911,679	819,25
912,043	819,25
912,407	680,88
912,771	772,3
913,135	764,89
913,498	690,76
913,862	759,95
914,226	720,41
914,589	742,65
914,953	782,19
915,316	725,36
915,68	735,24
916,043	784,66
916,406	708,06
916,77	762,42
917,133	747,59
917,496	747,59
917,859	762,42
918,222	715,47
918,584	757,48
918,947	794,54
919,31	819,25
919,673	668,53
920,035	683,35
920,398	799,48
920,76	732,77
921,122	735,24
921,485	690,76
921,847	703,12
922,209	675,94
922,571	663,58
922,933	732,77
923,295	735,24
923,657	688,29
924,018	638,88
924,38	594,4
924,742	688,29
925,103	693,23
925,465	671
925,826	671
926,187	673,47
926,549	730,3
926,91	668,53
927,271	646,29
927,632	611,7
927,993	717,94
928,354	661,11
928,715	715,47
929,075	648,76
929,436	651,23
929,797	671
930,157	651,23
930,518	633,93
930,878	671
931,238	611,7
931,598	675,94
931,959	626,52
932,319	599,34
932,679	601,81
933,039	586,99
933,399	604,28
933,758	688,29
934,118	651,23
934,478	601,81
934,837	619,11
935,197	688,29
935,556	582,05
935,916	542,51
936,275	636,4
936,634	596,87
936,993	552,39
937,353	621,58
937,712	577,1
938,07	619,11
938,429	554,87
938,788	631,46
939,147	562,28
939,506	510,39
939,864	557,34
940,223	569,69
940,581	517,8
940,939	552,39
941,298	557,34
941,656	589,46
942,014	557,34
942,372	554,87
942,73	512,86
943,088	520,27
943,446	542,51
943,804	510,39
944,161	594,4
944,519	577,1
944,877	512,86
945,234	537,57
945,592	562,28
945,949	589,46
946,306	515,33
946,663	567,22
947,021	530,16
947,378	507,92
947,735	498,04
948,091	500,51
948,448	525,22
948,805	517,8
949,162	525,22
949,518	515,33
949,875	537,57
950,231	549,92
950,588	569,69
950,944	515,33
951,3	505,45
951,657	549,92
952,013	498,04
952,369	468,39
952,725	490,62
953,081	530,16
953,436	488,15
953,792	480,74
954,148	480,74
954,503	498,04
954,859	502,98
955,214	520,27
955,57	522,74
955,925	562,28
956,28	480,74
956,635	532,63
956,991	458,5
957,346	512,86
957,701	522,74
958,055	478,27
958,41	527,69
958,765	441,21
959,12	498,04
959,474	473,33
959,829	480,74
960,183	500,51
960,537	473,33
960,892	554,87
961,246	522,74
961,6	512,86
961,954	532,63
962,308	522,74
962,662	460,97
963,016	453,56
963,37	527,69
963,723	552,39
964,077	512,86
964,43	423,91
964,784	488,15
965,137	530,16
965,491	483,21
965,844	414,03
966,197	537,57
966,55	530,16
966,903	522,74
967,256	458,5
967,609	493,09
967,962	436,26
968,315	433,79
968,667	458,5
969,02	431,32
969,372	404,14
969,725	446,15
970,077	532,63
970,429	431,32
970,782	502,98
971,134	498,04
971,486	460,97
971,838	493,09
972,19	498,04
972,542	379,43
972,893	431,32
973,245	423,91
973,597	409,08
973,948	495,56
974,3	470,86
974,651	433,79
975,003	394,26
975,354	401,67
975,705	465,91
976,056	448,62
976,407	448,62
976,758	428,85
977,109	453,56
977,46	431,32
977,811	470,86
978,161	431,32
978,512	495,56
978,862	428,85
979,213	473,33
979,563	473,33
979,913	483,21
980,264	357,2
980,614	441,21
980,964	468,39
981,314	443,68
981,664	478,27
982,014	460,97
982,363	448,62
982,713	456,03
983,063	463,44
983,412	446,15
983,762	458,5
984,111	446,15
984,461	480,74
984,81	448,62
985,159	446,15
985,508	465,91
985,857	431,32
986,206	389,32
986,555	367,08
986,904	460,97
987,253	456,03
987,601	418,97
987,95	446,15
988,298	391,79
988,647	418,97
988,995	367,08
989,343	456,03
989,692	416,5
990,04	468,39
990,388	391,79
990,736	421,44
991,084	401,67
991,432	451,09
991,779	386,85
992,127	438,73
992,475	423,91
992,822	473,33
993,17	399,2
993,517	406,61
993,864	510,39
994,212	354,72
994,559	374,49
994,906	480,74
995,253	480,74
995,6	478,27
995,947	468,39
996,293	463,44
996,64	453,56
996,987	409,08
997,333	460,97
997,68	411,56
998,026	448,62
998,373	399,2
998,719	446,15
999,065	493,09
999,411	409,08
999,757	386,85
1000,103	441,21
1000,449	396,73
1000,795	443,68
1001,141	367,08
1001,486	451,09
1001,832	448,62
1002,177	386,85
1002,523	334,96
1002,868	431,32
1003,213	468,39
1003,559	465,91
1003,904	391,79
1004,249	389,32
1004,594	364,61
1004,939	431,32
1005,283	322,6
1005,628	374,49
1005,973	495,56
1006,318	448,62
1006,662	418,97
1007,007	423,91
1007,351	354,72
1007,695	451,09
1008,039	431,32
1008,384	357,2
1008,728	389,32
1009,072	418,97
1009,416	339,9
1009,759	384,38
1010,103	480,74
1010,447	416,5
1010,791	352,25
1011,134	416,5
1011,478	414,03
1011,821	443,68
1012,164	436,26
1012,508	384,38
1012,851	416,5
1013,194	443,68
1013,537	448,62
1013,88	396,73
1014,223	448,62
1014,565	426,38
1014,908	359,67
1015,251	446,15
1015,593	431,32
1015,936	416,5
1016,278	436,26
1016,621	436,26
1016,963	431,32
1017,305	458,5
1017,647	465,91
1017,989	372,02
1018,331	441,21
1018,673	359,67
1019,015	416,5
1019,356	401,67
1019,698	334,96
1020,04	423,91
1020,381	406,61
1020,723	416,5
1021,064	389,32
1021,405	453,56
1021,746	418,97
1022,088	470,86
1022,429	362,14
1022,77	460,97
1023,11	428,85
1023,451	411,56
1023,792	411,56
1024,133	411,56
