Data from FLMS187131_14-04-45-268.txt Node
Date: Mon Dec 23 14:04:45 MSK 2024
User: FemtoLab1
Spectrometer: FLMS18713
Trigger mode: 0
Integration Time (sec): 2,139000E-2
Scans to average: 1
Electric dark correction enabled: true
Nonlinearity correction enabled: false
Boxcar width: 0
XAxis mode: Wavelengths
Number of Pixels in Spectrum: 2048
>>>>>Begin Spectral Data<<<<<
190,252	-20,38
190,715	-20,38
191,177	-20,38
191,64	-79,69
192,102	-50,04
192,565	-74,74
193,027	-74,74
193,49	-87,1
193,952	-64,86
194,415	-109,34
194,877	-17,91
195,339	-47,56
195,802	19,15
196,264	16,68
196,726	48,8
197,188	24,09
197,65	48,8
198,112	58,68
198,574	105,63
199,036	38,92
199,498	115,51
199,96	177,29
200,421	201,99
200,883	224,23
201,345	276,12
201,807	184,7
202,268	211,88
202,73	342,83
203,191	229,17
203,653	300,83
204,114	342,83
204,576	278,59
205,037	313,18
205,498	315,65
205,96	332,95
206,421	347,78
206,882	389,78
207,343	387,31
207,804	365,07
208,265	382,37
208,726	488,62
209,187	402,13
209,648	394,72
210,109	434,26
210,57	397,19
211,031	421,9
211,492	421,9
211,952	429,31
212,413	399,66
212,874	434,26
213,334	377,43
213,795	402,13
214,255	402,13
214,716	392,25
215,176	449,08
215,636	355,19
216,097	347,78
216,557	466,38
217,017	387,31
217,477	407,08
217,938	419,43
218,398	419,43
218,858	424,37
219,318	394,72
219,778	463,91
220,238	337,89
220,698	397,19
221,157	404,61
221,617	365,07
222,077	434,26
222,537	389,78
222,996	384,84
223,456	325,54
223,915	379,9
224,375	365,07
224,834	426,84
225,294	399,66
225,753	355,19
226,213	377,43
226,672	374,96
227,131	350,25
227,59	352,72
228,05	374,96
228,509	414,49
228,968	399,66
229,427	397,19
229,886	377,43
230,345	379,9
230,804	389,78
231,263	392,25
231,721	379,9
232,18	379,9
232,639	407,08
233,098	362,6
233,556	431,79
234,015	412,02
234,473	421,9
234,932	439,2
235,39	392,25
235,849	392,25
236,307	412,02
236,765	436,73
237,224	328,01
237,682	387,31
238,14	352,72
238,598	377,43
239,056	379,9
239,514	449,08
239,972	379,9
240,43	392,25
240,888	374,96
241,346	357,66
241,804	481,2
242,262	421,9
242,72	407,08
243,177	389,78
243,635	429,31
244,093	426,84
244,55	372,48
245,008	360,13
245,465	392,25
245,923	412,02
246,38	429,31
246,837	416,96
247,295	367,54
247,752	407,08
248,209	416,96
248,666	362,6
249,123	394,72
249,58	439,2
250,037	365,07
250,494	429,31
250,951	456,49
251,408	424,37
251,865	412,02
252,322	424,37
252,779	402,13
253,235	468,85
253,692	439,2
254,149	441,67
254,605	449,08
255,062	412,02
255,518	407,08
255,975	332,95
256,431	412,02
256,887	387,31
257,344	397,19
257,8	473,79
258,256	481,2
258,712	387,31
259,168	458,96
259,625	384,84
260,081	454,02
260,537	387,31
260,992	424,37
261,448	392,25
261,904	379,9
262,36	389,78
262,816	394,72
263,272	409,55
263,727	377,43
264,183	451,55
264,638	491,09
265,094	370,01
265,549	407,08
266,005	379,9
266,46	412,02
266,916	441,67
267,371	426,84
267,826	374,96
268,281	416,96
268,737	471,32
269,192	446,61
269,647	434,26
270,102	439,2
270,557	503,44
271,012	382,37
271,467	454,02
271,921	414,49
272,376	436,73
272,831	404,61
273,286	402,13
273,74	414,49
274,195	374,96
274,649	429,31
275,104	434,26
275,558	436,73
276,013	488,62
276,467	419,43
276,922	446,61
277,376	414,49
277,83	493,56
278,284	496,03
278,739	397,19
279,193	419,43
279,647	409,55
280,101	449,08
280,555	389,78
281,009	355,19
281,462	466,38
281,916	461,44
282,37	426,84
282,824	481,2
283,278	454,02
283,731	389,78
284,185	441,67
284,638	478,73
285,092	402,13
285,545	419,43
285,999	382,37
286,452	416,96
286,905	461,44
287,359	426,84
287,812	456,49
288,265	491,09
288,718	379,9
289,171	397,19
289,624	404,61
290,077	424,37
290,53	421,9
290,983	377,43
291,436	374,96
291,889	488,62
292,342	439,2
292,794	486,14
293,247	424,37
293,7	454,02
294,152	382,37
294,605	446,61
295,057	399,66
295,51	429,31
295,962	468,85
296,414	416,96
296,867	488,62
297,319	407,08
297,771	382,37
298,223	402,13
298,675	335,42
299,128	481,2
299,58	414,49
300,032	426,84
300,483	397,19
300,935	389,78
301,387	412,02
301,839	449,08
302,291	424,37
302,742	449,08
303,194	446,61
303,646	456,49
304,097	466,38
304,549	488,62
305	416,96
305,451	478,73
305,903	493,56
306,354	434,26
306,805	392,25
307,257	503,44
307,708	407,08
308,159	458,96
308,61	478,73
309,061	402,13
309,512	414,49
309,963	449,08
310,414	476,26
310,865	426,84
311,315	446,61
311,766	394,72
312,217	407,08
312,668	399,66
313,118	414,49
313,569	458,96
314,019	483,67
314,47	424,37
314,92	471,32
315,37	444,14
315,821	416,96
316,271	409,55
316,721	419,43
317,171	451,55
317,622	429,31
318,072	468,85
318,522	436,73
318,972	426,84
319,422	496,03
319,872	372,48
320,321	426,84
320,771	389,78
321,221	434,26
321,671	449,08
322,12	441,67
322,57	414,49
323,019	431,79
323,469	434,26
323,918	426,84
324,368	431,79
324,817	370,01
325,267	500,97
325,716	409,55
326,165	478,73
326,614	416,96
327,063	446,61
327,512	412,02
327,961	412,02
328,41	416,96
328,859	394,72
329,308	404,61
329,757	397,19
330,206	372,48
330,655	434,26
331,103	513,32
331,552	434,26
332,001	439,2
332,449	471,32
332,898	389,78
333,346	454,02
333,794	439,2
334,243	421,9
334,691	416,96
335,139	466,38
335,588	370,01
336,036	362,6
336,484	456,49
336,932	463,91
337,38	429,31
337,828	466,38
338,276	421,9
338,724	404,61
339,172	454,02
339,619	431,79
340,067	473,79
340,515	441,67
340,962	439,2
341,41	454,02
341,858	456,49
342,305	434,26
342,753	416,96
343,2	416,96
343,647	458,96
344,095	458,96
344,542	389,78
344,989	394,72
345,436	399,66
345,883	426,84
346,33	412,02
346,777	456,49
347,224	439,2
347,671	441,67
348,118	444,14
348,565	436,73
349,012	429,31
349,458	471,32
349,905	481,2
350,352	404,61
350,798	449,08
351,245	441,67
351,691	397,19
352,138	328,01
352,584	429,31
353,03	431,79
353,477	377,43
353,923	434,26
354,369	444,14
354,815	456,49
355,261	461,44
355,707	463,91
356,153	444,14
356,599	394,72
357,045	404,61
357,491	451,55
357,937	370,01
358,382	394,72
358,828	379,9
359,274	434,26
359,719	436,73
360,165	426,84
360,61	419,43
361,056	500,97
361,501	439,2
361,947	463,91
362,392	429,31
362,837	357,66
363,282	441,67
363,727	456,49
364,173	454,02
364,618	372,48
365,063	454,02
365,508	412,02
365,952	439,2
366,397	414,49
366,842	441,67
367,287	454,02
367,732	466,38
368,176	471,32
368,621	439,2
369,065	436,73
369,51	389,78
369,954	424,37
370,399	426,84
370,843	436,73
371,287	473,79
371,732	496,03
372,176	449,08
372,62	355,19
373,064	404,61
373,508	394,72
373,952	419,43
374,396	441,67
374,84	458,96
375,284	454,02
375,728	429,31
376,172	431,79
376,615	431,79
377,059	476,26
377,503	389,78
377,946	402,13
378,39	387,31
378,833	461,44
379,277	409,55
379,72	436,73
380,163	441,67
380,607	493,56
381,05	441,67
381,493	362,6
381,936	434,26
382,379	471,32
382,822	409,55
383,265	387,31
383,708	466,38
384,151	434,26
384,594	337,89
385,037	456,49
385,479	468,85
385,922	468,85
386,365	444,14
386,807	454,02
387,25	399,66
387,692	451,55
388,135	402,13
388,577	449,08
389,019	458,96
389,461	491,09
389,904	412,02
390,346	387,31
390,788	476,26
391,23	412,02
391,672	500,97
392,114	421,9
392,556	429,31
392,998	478,73
393,44	446,61
393,881	397,19
394,323	461,44
394,765	402,13
395,206	456,49
395,648	444,14
396,09	478,73
396,531	476,26
396,972	412,02
397,414	384,84
397,855	414,49
398,296	481,2
398,738	399,66
399,179	451,55
399,62	449,08
400,061	414,49
400,502	496,03
400,943	500,97
401,384	367,54
401,825	426,84
402,265	468,85
402,706	399,66
403,147	446,61
403,588	483,67
404,028	488,62
404,469	466,38
404,909	402,13
405,35	424,37
405,79	429,31
406,23	402,13
406,671	355,19
407,111	505,91
407,551	449,08
407,991	461,44
408,431	397,19
408,871	454,02
409,311	379,9
409,751	416,96
410,191	387,31
410,631	379,9
411,071	439,2
411,511	412,02
411,95	449,08
412,39	473,79
412,83	461,44
413,269	456,49
413,709	431,79
414,148	313,18
414,587	404,61
415,027	397,19
415,466	404,61
415,905	382,37
416,345	481,2
416,784	454,02
417,223	419,43
417,662	444,14
418,101	471,32
418,54	496,03
418,979	409,55
419,417	461,44
419,856	439,2
420,295	441,67
420,734	414,49
421,172	446,61
421,611	461,44
422,049	377,43
422,488	412,02
422,926	434,26
423,364	454,02
423,803	471,32
424,241	449,08
424,679	397,19
425,117	394,72
425,555	404,61
425,994	476,26
426,432	402,13
426,87	508,38
427,307	434,26
427,745	493,56
428,183	434,26
428,621	466,38
429,058	402,13
429,496	424,37
429,934	379,9
430,371	434,26
430,809	473,79
431,246	471,32
431,684	478,73
432,121	407,08
432,558	414,49
432,995	439,2
433,433	461,44
433,87	436,73
434,307	458,96
434,744	473,79
435,181	466,38
435,618	431,79
436,055	552,86
436,491	496,03
436,928	498,5
437,365	473,79
437,801	456,49
438,238	498,5
438,675	493,56
439,111	421,9
439,548	483,67
439,984	473,79
440,42	481,2
440,857	498,5
441,293	466,38
441,729	458,96
442,165	454,02
442,601	412,02
443,037	466,38
443,473	488,62
443,909	431,79
444,345	394,72
444,781	471,32
445,217	379,9
445,652	471,32
446,088	421,9
446,524	439,2
446,959	510,85
447,395	491,09
447,83	481,2
448,266	491,09
448,701	426,84
449,136	496,03
449,572	491,09
450,007	471,32
450,442	466,38
450,877	409,55
451,312	478,73
451,747	496,03
452,182	466,38
452,617	533,09
453,052	436,73
453,486	471,32
453,921	468,85
454,356	508,38
454,79	429,31
455,225	463,91
455,66	461,44
456,094	500,97
456,528	550,39
456,963	461,44
457,397	449,08
457,831	520,74
458,265	436,73
458,7	466,38
459,134	431,79
459,568	515,8
460,002	491,09
460,436	419,43
460,87	449,08
461,303	500,97
461,737	473,79
462,171	446,61
462,605	441,67
463,038	486,14
463,472	476,26
463,905	513,32
464,339	449,08
464,772	426,84
465,205	449,08
465,639	488,62
466,072	454,02
466,505	421,9
466,938	399,66
467,371	412,02
467,804	456,49
468,237	503,44
468,67	471,32
469,103	431,79
469,536	446,61
469,969	468,85
470,402	424,37
470,834	491,09
471,267	505,91
471,699	444,14
472,132	431,79
472,564	419,43
472,997	441,67
473,429	444,14
473,861	424,37
474,294	461,44
474,726	476,26
475,158	471,32
475,59	458,96
476,022	439,2
476,454	461,44
476,886	424,37
477,318	466,38
477,75	456,49
478,181	431,79
478,613	555,33
479,045	399,66
479,476	538,03
479,908	473,79
480,339	426,84
480,771	493,56
481,202	471,32
481,634	481,2
482,065	454,02
482,496	434,26
482,927	404,61
483,358	496,03
483,789	471,32
484,22	379,9
484,651	414,49
485,082	439,2
485,513	463,91
485,944	451,55
486,375	466,38
486,805	503,44
487,236	466,38
487,667	444,14
488,097	421,9
488,527	463,91
488,958	547,92
489,388	458,96
489,819	483,67
490,249	456,49
490,679	463,91
491,109	436,73
491,539	441,67
491,969	473,79
492,399	444,14
492,829	379,9
493,259	404,61
493,689	416,96
494,119	458,96
494,548	449,08
494,978	505,91
495,408	365,07
495,837	444,14
496,267	402,13
496,696	525,68
497,126	498,5
497,555	444,14
497,984	468,85
498,413	456,49
498,843	488,62
499,272	491,09
499,701	454,02
500,13	466,38
500,559	488,62
500,988	525,68
501,417	471,32
501,845	488,62
502,274	468,85
502,703	451,55
503,131	458,96
503,56	471,32
503,988	456,49
504,417	500,97
504,845	496,03
505,274	545,45
505,702	535,56
506,13	488,62
506,558	436,73
506,987	483,67
507,415	523,21
507,843	542,97
508,271	505,91
508,699	468,85
509,126	518,27
509,554	503,44
509,982	449,08
510,41	508,38
510,837	575,1
511,265	491,09
511,693	542,97
512,12	520,74
512,547	570,15
512,975	528,15
513,402	604,75
513,829	547,92
514,257	496,03
514,684	589,92
515,111	535,56
515,538	542,97
515,965	560,27
516,392	567,68
516,819	624,51
517,246	617,1
517,672	518,27
518,099	644,28
518,526	644,28
518,952	567,68
519,379	619,57
519,805	639,34
520,232	656,63
520,658	646,75
521,085	713,46
521,511	743,12
521,937	718,41
522,363	812,3
522,789	753
523,215	795
523,641	849,36
524,067	901,25
524,493	1066,8
524,919	1081,63
525,345	1074,21
525,771	1145,87
526,196	1299,06
526,622	1427,55
527,047	1449,79
527,473	1607,92
527,898	1620,28
528,324	1825,36
528,749	1988,44
529,174	2087,27
529,6	2181,16
530,025	2356,6
530,45	2571,56
530,875	2905,13
531,3	3167,04
531,725	3327,65
532,15	3634,04
532,575	3878,65
532,999	4412,36
533,424	4553,2
533,849	5269,76
534,273	5477,31
534,698	5971,49
535,122	6608,97
535,547	7192,1
535,971	7891,35
536,396	8706,74
536,82	9452,95
537,244	10359,76
537,668	11264,1
538,092	12494,59
538,517	13356,93
538,941	14486,12
539,364	15684,49
539,788	16680,25
540,212	17997,23
540,636	18983,11
541,06	19996,17
541,483	20942,51
541,907	22254,55
542,331	22785,79
542,754	23737,07
543,178	24540,11
543,601	25162,77
544,024	25738,48
544,448	26479,74
544,871	27013,45
545,294	27712,71
545,717	29007,45
546,14	29911,79
546,563	30588,81
546,986	31656,22
547,409	32812,59
547,832	33494,55
548,255	34272,88
548,677	34991,9
549,1	36059,32
549,522	36805,53
549,945	37714,81
550,368	38290,52
550,79	38868,71
551,212	39056,49
551,635	40047,31
552,057	40195,57
552,479	40699,62
552,901	41275,34
553,323	41364,29
553,745	41524,9
554,167	41633,61
554,589	41208,62
555,011	41366,76
555,433	41431
555,855	40914,59
556,277	40558,78
556,698	39753,28
557,12	39718,69
557,541	38703,16
557,963	38171,92
558,384	37588,79
558,806	37161,33
559,227	36689,4
559,648	36538,67
560,069	35164,87
560,49	34957,31
560,912	34517,5
561,333	34166,63
561,754	32970,73
562,174	32639,63
562,595	32155,34
563,016	31609,28
563,437	30737,06
563,858	30450,44
564,278	29756,12
564,699	28683,76
565,119	27984,51
565,54	26897,32
565,96	26264,78
566,38	25624,82
566,801	24342,44
567,221	23895,21
567,641	22724,01
568,061	21740,61
568,481	21226,66
568,901	20057,94
569,321	19467,4
569,741	18624,83
570,161	17683,43
570,581	17095,36
571,001	16571,54
571,42	16037,83
571,84	15311,39
572,259	14948,17
572,679	14273,62
573,098	13947,47
573,518	13384,11
573,937	12892,4
574,356	12445,18
574,775	12279,63
575,195	11780,51
575,614	11548,25
576,033	11130,67
576,452	10836,64
576,871	10181,86
577,29	10080,55
577,708	9801,34
578,127	9279,99
578,546	9287,4
578,964	9097,14
579,383	8746,28
579,801	8812,99
580,22	8434,95
580,638	8630,15
581,057	8521,43
581,475	8247,16
581,893	8472,01
582,311	8131,03
582,73	8271,87
583,148	8439,89
583,566	8437,42
583,984	8588,14
584,401	8580,73
584,819	8568,37
585,237	8627,68
585,655	8728,98
586,072	8509,07
586,49	8583,2
586,908	8553,55
587,325	8474,48
587,742	8192,8
588,16	8474,48
588,577	8308,93
588,994	8210,1
589,412	8121,15
589,829	7940,77
590,246	7730,75
590,663	7943,24
591,08	7893,83
591,497	7987,72
591,914	7849,35
592,33	7822,17
592,747	7953,13
593,164	7715,92
593,58	7723,34
593,997	7896,3
594,413	7982,78
594,83	8091,5
595,246	8032,19
595,663	8264,46
596,079	8242,22
596,495	8531,31
596,911	8699,33
597,327	8743,81
597,743	9097,14
598,159	8766,04
598,575	9166,33
598,991	9057,61
599,407	9381,29
599,823	9366,47
600,238	9492,48
600,654	9712,39
601,07	9865,58
601,485	10115,14
601,901	10033,6
602,316	10349,87
602,731	10325,17
603,147	10189,27
603,562	10295,52
603,977	10045,96
604,392	10041,02
604,807	9974,3
605,222	10011,37
605,637	10102,79
606,052	10246,1
606,467	10386,94
606,882	10515,42
607,296	11004,66
607,711	11350,58
608,125	11442
608,54	11953,47
608,954	12062,19
609,369	12252,45
609,783	12375,99
610,197	12544,01
610,612	13013,48
611,026	12870,17
611,44	13537,3
611,854	13772,04
612,268	14137,73
612,682	15064,3
613,096	15551,07
613,51	16324,45
613,923	17574,71
614,337	18474,11
614,751	19800,97
615,164	21330,44
615,578	22976,04
615,991	24475,86
616,405	26403,15
616,818	27883,2
617,231	29096,4
617,645	30191
618,058	30981,68
618,471	31416,55
618,884	31379,49
619,297	31092,86
619,71	30892,72
620,123	30309,6
620,536	29306,42
620,948	28310,66
621,361	27238,3
621,774	26558,81
622,186	25110,88
622,599	24258,43
623,011	23203,36
623,424	22227,37
623,836	21639,3
624,248	20544,7
624,661	19670,01
625,073	19279,61
625,485	18649,54
625,897	18345,62
626,309	17703,2
626,721	17547,53
627,133	17604,36
627,545	17512,94
627,956	17760,03
628,368	18264,09
628,78	18587,77
629,191	18866,98
629,603	19375,98
630,014	20127,12
630,426	20794,26
630,837	21503,4
631,248	22103,82
631,66	23445,51
632,071	24018,75
632,482	24945,33
632,893	25209,71
633,304	26237,6
633,715	26600,82
634,126	27263,01
634,536	27851,08
634,947	27789,31
635,358	27902,97
635,769	28367,49
636,179	28105,58
636,59	28261,24
637	27912,85
637,41	27796,72
637,821	27485,39
638,231	27522,45
638,641	26993,68
639,051	26818,25
639,462	26949,21
639,872	26304,31
640,282	25950,98
640,691	25424,68
641,101	25600,11
641,511	25669,3
641,921	25392,56
642,331	25392,56
642,74	25273,96
643,15	25039,22
643,559	25004,63
643,969	24802,02
644,378	24905,8
644,787	24881,09
645,197	24616,7
645,606	24105,23
646,015	23776,61
646,424	23843,32
646,833	23643,18
647,242	23415,86
647,651	23324,44
648,06	23109,47
648,469	23134,18
648,877	22978,51
649,286	22815,44
649,694	22993,34
650,103	22840,14
650,512	22536,23
650,92	22375,62
651,328	22135,95
651,737	22640
652,145	22365,74
652,553	22548,58
652,961	22474,46
653,369	23356,56
653,777	23336,79
654,185	24050,87
654,593	23924,86
655,001	24683,42
655,409	24594,47
655,816	24772,37
656,224	25323,37
656,631	25441,98
657,039	25585,29
657,446	25985,57
657,854	26207,95
658,261	26635,41
658,668	27510,1
659,076	27670,7
659,483	28621,99
659,89	29069,22
660,297	29887,08
660,704	30443,02
661,111	30991,56
661,518	32056,51
661,924	32269
662,331	33202,99
662,738	34117,22
663,144	34811,53
663,551	35750,46
663,957	36360,77
664,364	37485,02
664,77	38569,73
665,177	40156,03
665,583	41796,69
665,989	43323,69
666,395	45451,12
666,801	47175,79
667,207	48982
667,613	50573,24
668,019	52320,15
668,425	53535,82
668,83	54121,41
669,236	54417,92
669,642	54630,41
670,047	54736,66
670,453	54193,07
670,858	52940,34
671,264	52080,47
671,669	50279,2
672,074	48482,88
672,48	46135,55
672,885	44670,32
673,29	41937,53
673,695	39859,53
674,1	37396,07
674,505	35411,95
674,909	33254,88
675,314	31191,7
675,719	29724
676,124	28150,05
676,528	26734,24
676,933	25461,74
677,337	24441,27
677,742	23401,03
678,146	22889,56
678,55	22232,31
678,955	21500,93
679,359	21204,43
679,763	20791,79
680,167	20339,62
680,571	20356,92
680,975	19902,28
681,379	19492,11
681,782	19462,46
682,186	18778,03
682,59	18409,87
682,993	17974,99
683,397	17241,14
683,8	16722,26
684,204	16168,78
684,607	15538,71
685,011	14767,8
685,414	14110,55
685,817	13411,29
686,22	12704,62
686,623	12225,27
687,026	11815,1
687,429	11437,06
687,832	11063,96
688,235	10458,59
688,638	10510,48
689,04	10241,16
689,443	10174,44
689,845	10107,73
690,248	10144,79
690,65	10102,79
691,053	10179,38
691,455	10191,74
691,857	9826,05
692,26	10221,39
692,662	10031,13
693,064	10041,02
693,466	9714,86
693,868	10075,61
694,27	9961,95
694,671	10105,26
695,073	10060,78
695,475	9971,83
695,877	9865,58
696,278	9892,76
696,68	9905,12
697,081	9932,3
697,483	10021,25
697,884	9734,63
698,285	9428,24
698,686	9265,16
699,087	9230,57
699,489	9032,9
699,89	8874,76
700,291	8410,24
700,691	8121,15
701,092	7812,29
701,493	7634,38
701,894	7416,95
702,294	7268,69
702,695	6949,95
703,096	6549,67
703,496	6475,54
703,896	6238,34
704,297	5976,43
704,697	5682,39
705,097	5452,6
705,497	5232,69
705,897	5015,26
706,297	4849,71
706,697	4817,59
707,097	4582,85
707,497	4360,48
707,897	4325,88
708,297	4039,26
708,696	3876,18
709,096	3871,24
709,495	3814,41
709,895	3569,8
710,294	3431,43
710,694	3196,69
711,093	3298
711,492	3043,5
711,891	3028,67
712,29	2776,65
712,689	2635,81
713,088	2596,27
713,487	2593,8
713,886	2522,14
714,285	2435,66
714,684	2304,71
715,082	2349,18
715,481	2151,51
715,879	2178,69
716,278	2126,81
716,676	2000,79
717,075	1983,49
717,473	1934,08
717,871	1825,36
718,269	1946,43
718,667	2032,91
719,065	2077,39
719,463	2166,34
719,861	2176,22
720,259	2257,76
720,657	2368,95
721,054	2450,49
721,452	2638,28
721,85	2831
722,247	2996,55
722,645	3490,73
723,042	3769,94
723,439	4081,27
723,837	4390,13
724,234	4521,08
724,631	4516,14
725,028	4508,73
725,425	4412,36
725,822	4333,3
726,219	3945,37
726,616	3760,05
727,012	3320,24
727,409	3179,4
727,806	2660,51
728,202	2583,92
728,599	2354,13
728,995	2203,4
729,392	2027,97
729,788	1911,84
730,184	1998,32
730,58	1783,35
730,977	1822,89
731,373	1763,59
731,769	1855,01
732,165	1654,87
732,56	1578,27
732,956	1509,09
733,352	1449,79
733,748	1360,83
734,143	1281,77
734,539	1217,52
734,934	1202,7
735,33	1212,58
735,725	1197,76
736,12	1296,59
736,516	1481,91
736,911	1454,73
737,306	1474,49
737,701	1536,27
738,096	1758,64
738,491	1560,97
738,886	1575,8
739,28	1491,79
739,675	1449,79
740,07	1333,65
740,464	1299,06
740,859	1252,12
741,253	1091,51
741,648	1153,28
742,042	1111,28
742,437	1113,75
742,831	1222,47
743,225	1286,71
743,619	1212,58
744,013	1311,42
744,407	1370,72
744,801	1514,03
745,195	1600,51
745,588	1617,8
745,982	1657,34
746,376	1632,63
746,769	1496,73
747,163	1556,03
747,556	1400,37
747,95	1390,48
748,343	1244,7
748,736	1227,41
749,13	1089,04
749,523	1064,33
749,916	1069,27
750,309	1071,74
750,702	1091,51
751,095	1200,23
751,487	1252,12
751,88	1264,47
752,273	1350,95
752,665	1370,72
753,058	1494,26
753,45	1593,1
753,843	1600,51
754,235	1607,92
754,627	1602,98
755,02	1635,1
755,412	1526,38
755,804	1457,2
756,196	1454,73
756,588	1338,6
756,98	1266,94
757,372	1227,41
757,764	1207,64
758,155	1076,68
758,547	1024,8
758,938	1126,1
759,33	1219,99
759,721	1304
760,113	1318,83
760,504	1355,89
760,895	1506,62
761,287	1479,44
761,678	1674,64
762,069	1642,51
762,46	1877,25
762,851	1939,02
763,242	1943,96
763,632	1998,32
764,023	1951,37
764,414	1906,9
764,804	1897,01
765,195	1934,08
765,586	1699,34
765,976	1825,36
766,366	1600,51
766,757	1506,62
767,147	1415,19
767,537	1516,5
767,927	1336,13
768,317	1343,54
768,707	1336,13
769,097	1422,61
769,487	1296,59
769,877	1269,41
770,266	1412,72
770,656	1412,72
771,045	1511,56
771,435	1580,74
771,824	1494,26
772,214	1644,98
772,603	1817,95
772,992	1758,64
773,382	1862,42
773,771	1931,61
774,16	1953,84
774,549	1936,55
774,938	1897,01
775,327	1929,14
775,715	1850,07
776,104	1958,79
776,493	1956,31
776,881	1872,31
777,27	1906,9
777,658	1931,61
778,047	1813
778,435	1728,99
778,823	1686,99
779,212	1565,92
779,6	1543,68
779,988	1647,46
780,376	1575,8
780,764	1691,93
781,152	1598,04
781,539	1644,98
781,927	1647,46
782,315	1662,28
782,702	1620,28
783,09	1632,63
783,477	1761,12
783,865	1691,93
784,252	1684,52
784,64	1842,65
785,027	1901,96
785,414	1877,25
785,801	1911,84
786,188	1929,14
786,575	2003,26
786,962	2072,45
787,349	2158,93
787,736	2052,68
788,122	2188,58
788,509	2191,05
788,895	2210,81
789,282	2062,56
789,668	2220,7
790,055	2299,77
790,441	2205,87
790,827	2136,69
791,213	2195,99
791,6	2186,11
791,986	2260,23
792,372	2158,93
792,757	2322
793,143	2272,59
793,529	2203,4
793,915	2215,76
794,3	2141,63
794,686	2144,1
795,072	2094,68
795,457	2050,21
795,842	1976,08
796,228	2052,68
796,613	1852,54
796,998	1921,72
797,383	1934,08
797,768	1813
798,153	1864,89
798,538	1667,22
798,923	1741,35
799,308	1672,16
799,692	1612,86
800,077	1518,97
800,462	1454,73
800,846	1501,67
801,231	1388,01
801,615	1402,84
801,999	1385,54
802,384	1299,06
802,768	1205,17
803,152	1242,23
803,536	1091,51
803,92	1121,16
804,304	1084,1
804,688	1076,68
805,072	1014,91
805,455	1009,97
805,839	945,73
806,223	1024,8
806,606	943,26
806,99	1014,91
807,373	948,2
807,756	960,55
808,139	891,37
808,523	950,67
808,906	886,43
809,289	893,84
809,672	913,61
810,055	1012,44
810,438	893,84
810,82	866,66
811,203	906,19
811,586	1019,85
811,968	846,89
812,351	940,79
812,733	886,43
813,116	871,6
813,498	834,54
813,88	861,72
814,263	888,9
814,645	866,66
815,027	829,6
815,409	906,19
815,791	879,01
816,172	839,48
816,554	891,37
816,936	893,84
817,318	861,72
817,699	839,48
818,081	849,36
818,462	795
818,844	767,82
819,225	785,12
819,606	765,35
819,987	829,6
820,368	748,06
820,749	703,58
821,13	822,18
821,511	664,05
821,892	780,18
822,273	713,46
822,654	725,82
823,034	676,4
823,415	715,94
823,795	701,11
824,176	701,11
824,556	688,76
824,937	664,05
825,317	664,05
825,697	666,52
826,077	666,52
826,457	683,81
826,837	691,23
827,217	671,46
827,597	733,23
827,977	649,22
828,356	592,39
828,736	696,17
829,116	622,04
829,495	607,22
829,874	614,63
830,254	557,8
830,633	619,57
831,012	542,97
831,392	654,16
831,771	641,81
832,15	673,93
832,529	634,4
832,908	617,1
833,286	597,33
833,665	617,1
834,044	656,63
834,422	631,93
834,801	570,15
835,179	575,1
835,558	634,4
835,936	589,92
836,314	622,04
836,693	639,34
837,071	542,97
837,449	671,46
837,827	584,98
838,205	602,28
838,583	604,75
838,961	607,22
839,338	538,03
839,716	523,21
840,094	582,51
840,471	567,68
840,849	609,69
841,226	604,75
841,603	612,16
841,981	582,51
842,358	639,34
842,735	565,21
843,112	636,87
843,489	572,63
843,866	607,22
844,243	619,57
844,62	617,1
844,996	525,68
845,373	631,93
845,749	599,8
846,126	604,75
846,502	698,64
846,879	656,63
847,255	602,28
847,631	545,45
848,008	587,45
848,384	644,28
848,76	570,15
849,136	612,16
849,512	636,87
849,887	614,63
850,263	622,04
850,639	604,75
851,014	686,29
851,39	614,63
851,765	592,39
852,141	542,97
852,516	597,33
852,892	604,75
853,267	641,81
853,642	602,28
854,017	607,22
854,392	639,34
854,767	562,74
855,142	646,75
855,517	666,52
855,891	614,63
856,266	629,46
856,641	676,4
857,015	624,51
857,39	535,56
857,764	552,86
858,138	555,33
858,513	570,15
858,887	533,09
859,261	602,28
859,635	597,33
860,009	538,03
860,383	594,86
860,757	612,16
861,13	518,27
861,504	649,22
861,878	604,75
862,251	612,16
862,625	631,93
862,998	599,8
863,372	639,34
863,745	547,92
864,118	518,27
864,491	538,03
864,864	540,5
865,237	629,46
865,61	555,33
865,983	545,45
866,356	510,85
866,729	624,51
867,101	560,27
867,474	478,73
867,846	508,38
868,219	624,51
868,591	607,22
868,964	594,86
869,336	570,15
869,708	515,8
870,08	557,8
870,452	525,68
870,824	542,97
871,196	604,75
871,568	572,63
871,94	505,91
872,311	567,68
872,683	567,68
873,055	587,45
873,426	508,38
873,797	473,79
874,169	525,68
874,54	560,27
874,911	491,09
875,282	555,33
875,654	547,92
876,025	454,02
876,395	515,8
876,766	461,44
877,137	542,97
877,508	584,98
877,878	523,21
878,249	552,86
878,62	565,21
878,99	528,15
879,36	513,32
879,731	528,15
880,101	547,92
880,471	612,16
880,841	525,68
881,211	503,44
881,581	510,85
881,951	505,91
882,321	523,21
882,691	557,8
883,06	552,86
883,43	580,04
883,799	567,68
884,169	533,09
884,538	530,62
884,908	666,52
885,277	550,39
885,646	589,92
886,015	592,39
886,384	599,8
886,753	649,22
887,122	604,75
887,491	619,57
887,86	572,63
888,228	629,46
888,597	530,62
888,966	612,16
889,334	604,75
889,703	592,39
890,071	570,15
890,439	589,92
890,807	538,03
891,176	686,29
891,544	552,86
891,912	589,92
892,28	589,92
892,647	629,46
893,015	599,8
893,383	612,16
893,751	629,46
894,118	555,33
894,486	589,92
894,853	540,5
895,22	538,03
895,588	491,09
895,955	572,63
896,322	594,86
896,689	619,57
897,056	589,92
897,423	624,51
897,79	622,04
898,157	592,39
898,523	624,51
898,89	555,33
899,257	607,22
899,623	572,63
899,99	538,03
900,356	518,27
900,722	493,56
901,089	540,5
901,455	542,97
901,821	510,85
902,187	476,26
902,553	582,51
902,919	530,62
903,285	493,56
903,65	421,9
904,016	454,02
904,382	542,97
904,747	491,09
905,113	552,86
905,478	461,44
905,843	513,32
906,208	473,79
906,574	481,2
906,939	508,38
907,304	486,14
907,669	439,2
908,034	483,67
908,398	451,55
908,763	510,85
909,128	508,38
909,492	535,56
909,857	552,86
910,221	505,91
910,586	530,62
910,95	520,74
911,314	577,57
911,679	493,56
912,043	434,26
912,407	570,15
912,771	471,32
913,135	530,62
913,498	473,79
913,862	463,91
914,226	461,44
914,589	520,74
914,953	555,33
915,316	547,92
915,68	449,08
916,043	545,45
916,406	496,03
916,77	547,92
917,133	535,56
917,496	535,56
917,859	434,26
918,222	483,67
918,584	456,49
918,947	483,67
919,31	454,02
919,673	473,79
920,035	483,67
920,398	449,08
920,76	483,67
921,122	473,79
921,485	424,37
921,847	483,67
922,209	461,44
922,571	444,14
922,933	478,73
923,295	419,43
923,657	468,85
924,018	392,25
924,38	394,72
924,742	342,83
925,103	412,02
925,465	451,55
925,826	426,84
926,187	508,38
926,549	461,44
926,91	441,67
927,271	451,55
927,632	528,15
927,993	421,9
928,354	505,91
928,715	520,74
929,075	471,32
929,436	426,84
929,797	412,02
930,157	414,49
930,518	441,67
930,878	446,61
931,238	409,55
931,598	456,49
931,959	508,38
932,319	476,26
932,679	389,78
933,039	451,55
933,399	483,67
933,758	407,08
934,118	439,2
934,478	481,2
934,837	397,19
935,197	429,31
935,556	488,62
935,916	461,44
936,275	476,26
936,634	379,9
936,993	362,6
937,353	412,02
937,712	441,67
938,07	414,49
938,429	466,38
938,788	505,91
939,147	436,73
939,506	446,61
939,864	404,61
940,223	424,37
940,581	394,72
940,939	389,78
941,298	419,43
941,656	365,07
942,014	399,66
942,372	483,67
942,73	362,6
943,088	461,44
943,446	409,55
943,804	367,54
944,161	424,37
944,519	461,44
944,877	352,72
945,234	416,96
945,592	409,55
945,949	404,61
946,306	407,08
946,663	416,96
947,021	389,78
947,378	332,95
947,735	399,66
948,091	468,85
948,448	360,13
948,805	426,84
949,162	367,54
949,518	372,48
949,875	402,13
950,231	377,43
950,588	454,02
950,944	399,66
951,3	377,43
951,657	436,73
952,013	424,37
952,369	389,78
952,725	407,08
953,081	468,85
953,436	439,2
953,792	414,49
954,148	491,09
954,503	404,61
954,859	347,78
955,214	476,26
955,57	424,37
955,925	412,02
956,28	399,66
956,635	434,26
956,991	394,72
957,346	419,43
957,701	367,54
958,055	382,37
958,41	365,07
958,765	399,66
959,12	431,79
959,474	478,73
959,829	496,03
960,183	424,37
960,537	461,44
960,892	387,31
961,246	412,02
961,6	340,36
961,954	439,2
962,308	407,08
962,662	439,2
963,016	407,08
963,37	402,13
963,723	446,61
964,077	434,26
964,43	471,32
964,784	444,14
965,137	451,55
965,491	439,2
965,844	374,96
966,197	446,61
966,55	365,07
966,903	451,55
967,256	407,08
967,609	355,19
967,962	365,07
968,315	449,08
968,667	441,67
969,02	414,49
969,372	439,2
969,725	414,49
970,077	387,31
970,429	431,79
970,782	414,49
971,134	367,54
971,486	355,19
971,838	379,9
972,19	382,37
972,542	419,43
972,893	394,72
973,245	468,85
973,597	372,48
973,948	416,96
974,3	466,38
974,651	414,49
975,003	412,02
975,354	461,44
975,705	394,72
976,056	394,72
976,407	404,61
976,758	461,44
977,109	392,25
977,46	424,37
977,811	439,2
978,161	330,48
978,512	412,02
978,862	421,9
979,213	463,91
979,563	387,31
979,913	397,19
980,264	387,31
980,614	407,08
980,964	439,2
981,314	399,66
981,664	419,43
982,014	374,96
982,363	394,72
982,713	416,96
983,063	486,14
983,412	362,6
983,762	503,44
984,111	394,72
984,461	394,72
984,81	394,72
985,159	412,02
985,508	399,66
985,857	419,43
986,206	424,37
986,555	370,01
986,904	446,61
987,253	416,96
987,601	436,73
987,95	439,2
988,298	382,37
988,647	414,49
988,995	434,26
989,343	434,26
989,692	426,84
990,04	456,49
990,388	374,96
990,736	439,2
991,084	434,26
991,432	409,55
991,779	370,01
992,127	454,02
992,475	392,25
992,822	414,49
993,17	397,19
993,517	387,31
993,864	414,49
994,212	421,9
994,559	365,07
994,906	449,08
995,253	325,54
995,6	424,37
995,947	367,54
996,293	439,2
996,64	426,84
996,987	463,91
997,333	409,55
997,68	409,55
998,026	412,02
998,373	473,79
998,719	379,9
999,065	377,43
999,411	402,13
999,757	382,37
1000,103	379,9
1000,449	387,31
1000,795	360,13
1001,141	377,43
1001,486	392,25
1001,832	397,19
1002,177	429,31
1002,523	436,73
1002,868	404,61
1003,213	451,55
1003,559	473,79
1003,904	377,43
1004,249	360,13
1004,594	429,31
1004,939	441,67
1005,283	335,42
1005,628	335,42
1005,973	367,54
1006,318	352,72
1006,662	407,08
1007,007	404,61
1007,351	389,78
1007,695	384,84
1008,039	377,43
1008,384	360,13
1008,728	355,19
1009,072	318,13
1009,416	345,3
1009,759	414,49
1010,103	377,43
1010,447	429,31
1010,791	389,78
1011,134	330,48
1011,478	330,48
1011,821	370,01
1012,164	407,08
1012,508	387,31
1012,851	397,19
1013,194	407,08
1013,537	407,08
1013,88	404,61
1014,223	389,78
1014,565	409,55
1014,908	429,31
1015,251	458,96
1015,593	399,66
1015,936	372,48
1016,278	402,13
1016,621	461,44
1016,963	407,08
1017,305	392,25
1017,647	402,13
1017,989	416,96
1018,331	407,08
1018,673	404,61
1019,015	402,13
1019,356	392,25
1019,698	424,37
1020,04	394,72
1020,381	345,3
1020,723	362,6
1021,064	412,02
1021,405	379,9
1021,746	384,84
1022,088	424,37
1022,429	407,08
1022,77	323,07
1023,11	372,48
1023,451	399,66
1023,792	399,66
1024,133	399,66
