Data from FLMS187131_13-10-04-099.txt Node
Date: Mon Dec 23 13:10:04 MSK 2024
User: FemtoLab1
Spectrometer: FLMS18713
Trigger mode: 0
Integration Time (sec): 5,300000E-2
Scans to average: 1
Electric dark correction enabled: true
Nonlinearity correction enabled: false
Boxcar width: 0
XAxis mode: Wavelengths
Number of Pixels in Spectrum: 2048
>>>>>Begin Spectral Data<<<<<
190,252	-44,78
190,715	-44,78
191,177	-44,78
191,64	-173,27
192,102	-94,2
192,565	-148,56
193,027	-123,85
193,49	-74,44
193,952	-118,91
194,415	-118,91
194,877	-2,78
195,339	-15,13
195,802	19,46
196,264	21,93
196,726	7,1
197,188	118,29
197,65	29,34
198,112	101
198,574	46,64
199,036	118,29
199,498	140,53
199,96	101
200,421	110,88
200,883	236,9
201,345	397,5
201,807	318,43
202,268	367,85
202,73	343,14
203,191	318,43
203,653	348,08
204,114	318,43
204,576	372,79
205,037	375,26
205,498	382,68
205,96	466,69
206,421	481,51
206,882	414,8
207,343	456,8
207,804	513,63
208,265	441,98
208,726	469,16
209,187	407,39
209,648	486,45
210,109	441,98
210,57	365,38
211,031	493,87
211,492	427,15
211,952	456,8
212,413	434,57
212,874	501,28
213,334	456,8
213,795	427,15
214,255	481,51
214,716	412,33
215,176	444,45
215,636	441,98
216,097	422,21
216,557	419,74
217,017	409,86
217,477	466,69
217,938	429,62
218,398	380,21
218,858	459,27
219,318	464,22
219,778	432,09
220,238	434,57
220,698	414,8
221,157	404,91
221,617	392,56
222,077	355,5
222,537	427,15
222,996	422,21
223,456	407,39
223,915	444,45
224,375	387,62
224,834	402,44
225,294	424,68
225,753	387,62
226,213	397,5
226,672	402,44
227,131	424,68
227,59	441,98
228,05	456,8
228,509	348,08
228,968	370,32
229,427	372,79
229,886	375,26
230,345	451,86
230,804	387,62
231,263	429,62
231,721	429,62
232,18	417,27
232,639	424,68
233,098	437,04
233,556	434,57
234,015	404,91
234,473	343,14
234,932	392,56
235,39	446,92
235,849	367,85
236,307	441,98
236,765	380,21
237,224	385,15
237,682	402,44
238,14	432,09
238,598	414,8
239,056	365,38
239,514	441,98
239,972	375,26
240,43	434,57
240,888	441,98
241,346	451,86
241,804	404,91
242,262	446,92
242,72	402,44
243,177	449,39
243,635	335,73
244,093	427,15
244,55	432,09
245,008	469,16
245,465	444,45
245,923	422,21
246,38	466,69
246,837	449,39
247,295	464,22
247,752	466,69
248,209	385,15
248,666	417,27
249,123	429,62
249,58	466,69
250,037	427,15
250,494	407,39
250,951	486,45
251,408	449,39
251,865	427,15
252,322	432,09
252,779	476,57
253,235	511,16
253,692	414,8
254,149	392,56
254,605	434,57
255,062	461,74
255,518	404,91
255,975	417,27
256,431	439,51
256,887	402,44
257,344	439,51
257,8	427,15
258,256	481,51
258,712	424,68
259,168	370,32
259,625	513,63
260,081	437,04
260,537	350,56
260,992	407,39
261,448	409,86
261,904	427,15
262,36	441,98
262,816	409,86
263,272	412,33
263,727	429,62
264,183	481,51
264,638	409,86
265,094	419,74
265,549	449,39
266,005	434,57
266,46	533,4
266,916	449,39
267,371	419,74
267,826	409,86
268,281	387,62
268,737	441,98
269,192	370,32
269,647	409,86
270,102	424,68
270,557	496,34
271,012	395,03
271,467	459,27
271,921	459,27
272,376	432,09
272,831	456,8
273,286	412,33
273,74	483,98
274,195	424,68
274,649	474,1
275,104	466,69
275,558	424,68
276,013	432,09
276,467	372,79
276,922	456,8
277,376	372,79
277,83	491,4
278,284	488,92
278,739	483,98
279,193	437,04
279,647	479,04
280,101	419,74
280,555	449,39
281,009	501,28
281,462	432,09
281,916	508,69
282,37	419,74
282,824	399,97
283,278	474,1
283,731	370,32
284,185	424,68
284,638	390,09
285,092	474,1
285,545	446,92
285,999	399,97
286,452	501,28
286,905	493,87
287,359	377,73
287,812	486,45
288,265	419,74
288,718	459,27
289,171	521,05
289,624	476,57
290,077	402,44
290,53	409,86
290,983	375,26
291,436	424,68
291,889	466,69
292,342	414,8
292,794	395,03
293,247	491,4
293,7	446,92
294,152	501,28
294,605	451,86
295,057	491,4
295,51	483,98
295,962	427,15
296,414	380,21
296,867	464,22
297,319	469,16
297,771	412,33
298,223	422,21
298,675	469,16
299,128	471,63
299,58	399,97
300,032	464,22
300,483	454,33
300,935	444,45
301,387	479,04
301,839	449,39
302,291	535,87
302,742	417,27
303,194	441,98
303,646	513,63
304,097	479,04
304,549	456,8
305	481,51
305,451	429,62
305,903	471,63
306,354	483,98
306,805	427,15
307,257	498,81
307,708	493,87
308,159	409,86
308,61	466,69
309,061	486,45
309,512	454,33
309,963	402,44
310,414	469,16
310,865	451,86
311,315	432,09
311,766	530,93
312,217	444,45
312,668	419,74
313,118	424,68
313,569	424,68
314,019	449,39
314,47	501,28
314,92	498,81
315,37	506,22
315,821	422,21
316,271	409,86
316,721	498,81
317,171	434,57
317,622	456,8
318,072	528,46
318,522	459,27
318,972	395,03
319,422	491,4
319,872	451,86
320,321	429,62
320,771	488,92
321,221	496,34
321,671	424,68
322,12	439,51
322,57	414,8
323,019	498,81
323,469	476,57
323,918	496,34
324,368	419,74
324,817	432,09
325,267	439,51
325,716	446,92
326,165	486,45
326,614	409,86
327,063	429,62
327,512	488,92
327,961	545,75
328,41	461,74
328,859	493,87
329,308	464,22
329,757	464,22
330,206	481,51
330,655	464,22
331,103	481,51
331,552	402,44
332,001	437,04
332,449	444,45
332,898	432,09
333,346	479,04
333,794	483,98
334,243	516,1
334,691	511,16
335,139	528,46
335,588	459,27
336,036	441,98
336,484	486,45
336,932	498,81
337,38	429,62
337,828	508,69
338,276	414,8
338,724	441,98
339,172	474,1
339,619	399,97
340,067	459,27
340,515	466,69
340,962	479,04
341,41	377,73
341,858	424,68
342,305	439,51
342,753	456,8
343,2	409,86
343,647	417,27
344,095	461,74
344,542	474,1
344,989	481,51
345,436	479,04
345,883	466,69
346,33	439,51
346,777	437,04
347,224	454,33
347,671	409,86
348,118	471,63
348,565	414,8
349,012	441,98
349,458	471,63
349,905	543,28
350,352	454,33
350,798	466,69
351,245	479,04
351,691	404,91
352,138	427,15
352,584	427,15
353,03	451,86
353,477	439,51
353,923	412,33
354,369	501,28
354,815	402,44
355,261	444,45
355,707	543,28
356,153	474,1
356,599	439,51
357,045	513,63
357,491	516,1
357,937	382,68
358,382	437,04
358,828	424,68
359,274	486,45
359,719	496,34
360,165	469,16
360,61	432,09
361,056	451,86
361,501	446,92
361,947	437,04
362,392	479,04
362,837	449,39
363,282	508,69
363,727	491,4
364,173	506,22
364,618	454,33
365,063	479,04
365,508	469,16
365,952	469,16
366,397	451,86
366,842	506,22
367,287	513,63
367,732	434,57
368,176	464,22
368,621	474,1
369,065	501,28
369,51	456,8
369,954	392,56
370,399	471,63
370,843	432,09
371,287	479,04
371,732	441,98
372,176	543,28
372,62	449,39
373,064	449,39
373,508	474,1
373,952	459,27
374,396	441,98
374,84	474,1
375,284	429,62
375,728	432,09
376,172	424,68
376,615	498,81
377,059	451,86
377,503	479,04
377,946	474,1
378,39	486,45
378,833	479,04
379,277	483,98
379,72	449,39
380,163	456,8
380,607	422,21
381,05	464,22
381,493	486,45
381,936	429,62
382,379	466,69
382,822	483,98
383,265	427,15
383,708	417,27
384,151	404,91
384,594	476,57
385,037	377,73
385,479	466,69
385,922	446,92
386,365	446,92
386,807	466,69
387,25	471,63
387,692	501,28
388,135	461,74
388,577	437,04
389,019	437,04
389,461	429,62
389,904	409,86
390,346	469,16
390,788	432,09
391,23	486,45
391,672	404,91
392,114	493,87
392,556	464,22
392,998	390,09
393,44	516,1
393,881	466,69
394,323	427,15
394,765	427,15
395,206	444,45
395,648	427,15
396,09	446,92
396,531	486,45
396,972	422,21
397,414	501,28
397,855	511,16
398,296	412,33
398,738	402,44
399,179	464,22
399,62	449,39
400,061	469,16
400,502	464,22
400,943	439,51
401,384	432,09
401,825	488,92
402,265	404,91
402,706	521,05
403,147	474,1
403,588	474,1
404,028	469,16
404,469	486,45
404,909	444,45
405,35	535,87
405,79	377,73
406,23	414,8
406,671	550,7
407,111	402,44
407,551	530,93
407,991	476,57
408,431	496,34
408,871	479,04
409,311	444,45
409,751	464,22
410,191	456,8
410,631	446,92
411,071	434,57
411,511	451,86
411,95	461,74
412,39	486,45
412,83	511,16
413,269	496,34
413,709	434,57
414,148	523,52
414,587	446,92
415,027	439,51
415,466	496,34
415,905	466,69
416,345	451,86
416,784	481,51
417,223	380,21
417,662	451,86
418,101	530,93
418,54	444,45
418,979	483,98
419,417	444,45
419,856	449,39
420,295	474,1
420,734	496,34
421,172	451,86
421,611	441,98
422,049	454,33
422,488	446,92
422,926	481,51
423,364	434,57
423,803	390,09
424,241	476,57
424,679	402,44
425,117	503,75
425,555	446,92
425,994	444,45
426,432	481,51
426,87	429,62
427,307	357,97
427,745	516,1
428,183	511,16
428,621	469,16
429,058	429,62
429,496	471,63
429,934	456,8
430,371	454,33
430,809	503,75
431,246	567,99
431,684	503,75
432,121	540,81
432,558	466,69
432,995	555,64
433,433	469,16
433,87	441,98
434,307	538,34
434,744	481,51
435,181	456,8
435,618	469,16
436,055	508,69
436,491	577,88
436,928	523,52
437,365	451,86
437,801	513,63
438,238	518,57
438,675	508,69
439,111	486,45
439,548	508,69
439,984	511,16
440,42	567,99
440,857	449,39
441,293	525,99
441,729	558,11
442,165	488,92
442,601	563,05
443,037	503,75
443,473	560,58
443,909	488,92
444,345	493,87
444,781	570,46
445,217	535,87
445,652	563,05
446,088	577,88
446,524	521,05
446,959	523,52
447,395	610
447,83	600,11
448,266	503,75
448,701	553,17
449,136	595,17
449,572	572,93
450,007	567,99
450,442	565,52
450,877	619,88
451,312	605,06
451,747	585,29
452,182	582,82
452,617	550,7
453,052	543,28
453,486	530,93
453,921	525,99
454,356	565,52
454,79	567,99
455,225	605,06
455,66	572,93
456,094	590,23
456,528	575,4
456,963	612,47
457,397	605,06
457,831	605,06
458,265	647,06
458,7	639,65
459,134	575,4
459,568	590,23
460,002	644,59
460,436	666,83
460,87	686,59
461,303	654,47
461,737	577,88
462,171	689,07
462,605	701,42
463,038	696,48
463,472	679,18
463,905	671,77
464,339	731,07
464,772	852,14
465,205	760,72
465,639	879,32
466,072	832,38
466,505	822,49
466,938	787,9
467,371	842,26
467,804	896,62
468,237	876,85
468,67	911,44
469,103	958,39
469,536	965,8
469,969	1032,52
470,402	968,27
470,834	1069,58
471,267	1069,58
471,699	1175,83
472,132	1116,53
472,564	1188,18
472,997	1237,6
473,429	1395,74
473,861	1351,26
474,294	1519,28
474,726	1563,75
475,158	1514,34
475,59	1741,66
476,022	1867,67
476,454	1931,91
476,886	2077,7
477,318	2141,94
477,75	2285,25
478,181	2601,52
478,613	2683,06
479,045	3075,93
479,476	3266,19
479,908	3392,2
480,339	3654,11
480,771	4056,87
481,202	4479,39
481,634	4763,54
482,065	5191
482,496	5791,42
482,927	6394,31
483,358	6648,81
483,789	7301,12
484,22	7978,14
484,651	8437,73
485,082	9218,52
485,513	10090,74
485,944	10925,9
486,375	11516,44
486,805	12250,29
487,236	13525,26
487,667	14293,7
488,097	15279,58
488,527	16309,93
488,958	17360,05
489,388	18437,36
489,819	19032,84
490,249	20530,19
490,679	21261,56
491,109	22420,4
491,539	22805,86
491,969	24026,47
492,399	24799,86
492,829	25891,98
493,259	27569,71
493,689	28404,86
494,119	29543,94
494,548	30621,24
494,978	31972,81
495,408	33040,22
495,837	34381,91
496,267	35617,34
496,696	35918,79
497,126	37450,73
497,555	38325,42
497,984	38896,19
498,413	39943,85
498,843	40321,89
499,272	40628,28
499,701	41614,16
500,13	41920,55
500,559	43131,27
500,988	43412,95
501,417	44030,67
501,845	44114,68
502,274	44880,65
502,703	45481,08
503,131	45691,1
503,56	46163,04
503,988	46536,14
504,417	47403,42
504,845	47519,55
505,274	48544,96
505,702	48750,04
506,13	49644,5
506,558	49404,82
506,987	49765,57
507,415	49797,69
507,843	49639,56
508,271	49676,62
508,699	49703,8
509,126	49696,39
509,554	49259,04
509,982	49175,03
510,41	49103,38
510,837	48999,6
511,265	49039,13
511,693	48841,46
512,12	48493,07
512,547	48465,89
512,975	48829,11
513,402	48161,97
513,829	48320,11
514,257	48414
514,684	48241,04
515,111	48552,37
515,538	48381,88
515,965	47917,36
516,392	48404,12
516,819	48446,12
517,246	48873,59
517,672	48826,64
518,099	49147,85
518,526	48858,76
518,952	48972,42
519,379	49286,22
519,805	49390
520,232	49560,49
520,658	50039,84
521,085	50047,25
521,511	50069,49
521,937	50417,88
522,363	50069,49
522,789	50571,08
523,215	50104,08
523,641	50249,86
524,067	50328,93
524,493	50215,27
524,919	50697,09
525,345	50662,5
525,771	50684,74
526,196	50739,1
526,622	51245,62
527,047	50983,71
527,473	50664,97
527,898	50758,86
528,324	50731,68
528,749	50200,45
529,174	50321,52
529,6	50007,72
530,025	49886,64
530,45	49691,44
530,875	49108,32
531,3	49545,66
531,725	49372,7
532,15	49392,47
532,575	48937,83
532,999	49377,64
533,424	49691,44
533,849	49516,01
534,273	49866,88
534,698	50109,02
535,122	49671,68
535,547	49802,63
535,971	49607,44
536,396	49461,65
536,82	49632,14
537,244	50025,01
537,668	50146,09
538,092	50012,66
538,517	50395,64
538,941	49866,88
539,364	49570,37
539,788	50534,01
540,212	50496,95
540,636	50116,44
541,06	50534,01
541,483	49941
541,907	50541,43
542,331	50640,26
542,754	51433,41
543,178	50897,23
543,601	51430,94
544,024	51349,4
544,448	51507,54
544,871	51272,8
545,294	51334,58
545,717	51344,46
546,14	50361,05
546,563	49876,76
546,986	49881,7
547,409	48831,58
547,832	48080,43
548,255	47242,81
548,677	46140,8
549,1	45159,86
549,522	44253,05
549,945	44109,74
550,368	42787,82
550,79	42666,75
551,212	42323,3
551,635	42454,25
552,057	41759,94
552,479	42125,63
552,901	42570,39
553,323	42773
553,745	42745,82
554,167	42857,01
554,589	42931,13
555,011	43099,15
555,433	43101,62
555,855	42960,78
556,277	42886,66
556,698	42310,94
557,12	41965,02
557,541	40969,26
557,963	40551,68
558,384	40381,19
558,806	39560,86
559,227	38780,06
559,648	38063,51
560,069	38009,15
560,49	37942,44
560,912	37275,3
561,333	36786,07
561,754	36976,33
562,174	36988,68
562,595	37366,72
563,016	36904,67
563,437	37183,88
563,858	37549,57
564,278	38056,1
564,699	37863,37
565,119	38063,51
565,54	38977,73
565,96	39170,46
566,38	38876,43
566,801	38557,69
567,221	39200,11
567,641	39113,63
568,061	39343,42
568,481	39548,51
568,901	39610,28
569,321	40069,86
569,741	39676,99
570,161	39706,64
570,581	39420,02
571,001	39721,47
571,42	40030,33
571,84	39805,48
572,259	39770,88
572,679	40200,82
573,098	40361,42
573,518	40895,13
573,937	40403,43
574,356	40870,42
574,775	40690,05
575,195	40838,3
575,614	40843,24
576,033	40460,26
576,452	40445,43
576,871	41008,79
577,29	40756,76
577,708	40724,64
578,127	40245,29
578,546	40450,37
578,964	39812,89
579,383	39909,25
579,801	39736,29
580,22	39214,94
580,638	39736,29
581,057	39318,71
581,475	39101,28
581,893	39143,28
582,311	39019,74
582,73	38441,55
583,148	38058,57
583,566	38631,81
583,984	37986,91
584,401	37539,68
584,819	38392,14
585,237	37502,62
585,655	37616,28
586,072	37028,21
586,49	37124,58
586,908	36939,26
587,325	36855,25
587,742	37085,04
588,16	37255,53
588,577	36828,07
588,994	36637,82
589,412	36912,08
589,829	36269,66
590,246	36850,31
590,663	36635,34
591,08	36086,81
591,497	36420,38
591,914	36385,79
592,33	35649,47
592,747	36237,53
593,164	36709,47
593,58	36714,41
593,997	36242,48
594,413	36857,72
594,83	36677,35
595,246	36837,96
595,663	36692,18
596,079	36388,26
596,495	37505,09
596,911	37351,9
597,327	37421,08
597,743	37290,13
598,159	37131,99
598,575	37220,94
598,991	36753,95
599,407	36645,23
599,823	36996,09
600,238	36151,05
600,654	36131,29
601,07	35708,77
601,485	35432,03
601,901	35053,99
602,316	35160,23
602,731	34399,2
603,147	34134,82
603,562	33714,77
603,977	33608,52
604,392	33307,08
604,807	32798,08
605,222	32333,55
605,637	32118,59
606,052	32017,28
606,467	31683,71
606,882	31157,42
607,296	30440,86
607,711	30855,97
608,125	30188,83
608,54	29951,63
608,954	29749,02
609,369	29346,27
609,783	28950,93
610,197	28721,13
610,612	29012,7
611,026	28268,96
611,44	27878,57
611,854	27601,83
612,268	27369,57
612,682	27134,83
613,096	27132,36
613,51	26620,89
613,923	26304,62
614,337	26470,17
614,751	26255,2
615,164	26153,9
615,578	25835,15
615,991	25509
616,405	25269,32
616,818	25276,74
617,231	24612,07
617,645	24666,43
618,058	24691,14
618,471	24140,13
618,884	24090,72
619,297	24147,55
619,71	23893,05
620,123	23999,29
620,536	23428,52
620,948	23828,8
621,361	23188,85
621,774	23344,51
622,186	22679,85
622,599	23141,9
623,011	22931,88
623,424	22803,39
623,836	22408,05
624,248	22311,69
624,661	21901,52
625,073	21740,91
625,485	22067,07
625,897	21879,28
626,309	21516,06
626,721	21479
627,133	21451,82
627,545	21451,82
627,956	21288,74
628,368	21054,01
628,78	20905,76
629,191	20769,86
629,603	20888,46
630,014	20584,55
630,426	20500,54
630,837	20525,24
631,248	20008,83
631,66	20453,59
632,071	20033,54
632,482	19833,4
632,893	19880,35
633,304	19603,61
633,715	19638,2
634,126	19714,8
634,536	19242,86
634,947	19267,57
635,358	19148,97
635,769	19131,67
636,179	19015,54
636,59	18746,21
637	18699,27
637,41	18447,24
637,821	18565,84
638,231	18093,9
638,641	18486,77
639,051	18370,64
639,462	18279,22
639,872	18027,19
640,282	18037,07
640,691	17676,33
641,101	17775,16
641,511	17621,97
641,921	17822,11
642,331	17273,57
642,74	17409,47
643,15	17335,35
643,559	17382,29
643,969	17006,72
644,378	17552,78
644,787	17152,5
645,197	16917,77
645,606	16762,1
646,015	16747,28
646,424	16552,08
646,833	16277,81
647,242	16351,94
647,651	16468,07
648,06	16238,28
648,469	16090,02
648,877	16048,02
649,286	16065,32
649,694	15726,81
650,103	15899,77
650,512	15954,13
650,92	15699,63
651,328	15398,18
651,737	15514,31
652,145	15506,9
652,553	15242,51
652,961	15585,97
653,369	15025,08
653,777	15299,35
654,185	14936,13
654,593	15034,96
655,001	15044,84
655,409	14748,34
655,816	14372,77
656,224	14847,18
656,631	14743,4
657,039	14184,98
657,446	14120,74
657,854	14199,81
658,261	13883,53
658,668	13866,24
659,076	13582,09
659,483	13525,26
659,89	13377
660,297	13347,35
660,704	13290,52
661,111	12826
661,518	12699,99
661,924	12863,06
662,331	12482,55
662,738	12690,1
663,144	12225,58
663,551	12178,63
663,957	11938,96
664,364	11832,71
664,77	11743,76
665,177	11733,87
665,583	11491,73
665,989	11200,16
666,395	11224,87
666,801	10874,01
667,207	10948,14
667,613	10698,58
668,019	10434,19
668,425	10209,34
668,83	10493,49
669,236	10135,22
669,642	9942,49
670,047	9853,54
670,453	9920,25
670,858	9507,62
671,264	9305
671,669	9332,18
672,074	9208,64
672,48	9211,11
672,885	8976,38
673,29	8845,42
673,695	8808,36
674,1	8479,73
674,505	8556,33
674,909	8373,48
675,314	8170,87
675,719	8259,82
676,124	8091,8
676,528	8114,04
676,933	7913,9
677,337	7862,01
677,742	7847,19
678,146	7521,03
678,55	7523,5
678,955	7348,07
679,359	7264,06
679,763	7078,75
680,167	7192,41
680,571	7113,34
680,975	6903,31
681,379	6955,2
681,782	6762,47
682,186	6587,04
682,59	6671,05
682,993	6641,4
683,397	6468,44
683,8	6475,85
684,204	6330,07
684,607	6327,6
685,011	6223,82
685,414	5984,15
685,817	5991,56
686,22	6097,81
686,623	5981,68
687,026	6063,22
687,429	5865,55
687,832	5838,37
688,235	5764,24
688,638	5754,36
689,04	5504,8
689,443	5707,41
689,845	5430,67
690,248	5428,2
690,65	5363,96
691,053	5388,67
691,455	5351,6
691,857	5336,78
692,26	5368,9
692,662	5060,04
693,064	5195,94
693,466	5124,28
693,868	4869,78
694,27	5022,98
694,671	4934,03
695,073	4966,15
695,475	4847,55
695,877	4837,66
696,278	4790,72
696,68	4543,63
697,081	4590,58
697,483	4570,81
697,884	4689,41
698,285	4580,69
698,686	4521,39
699,087	4555,98
699,489	4299,01
699,89	4471,97
700,291	4491,74
700,691	4205,12
701,092	4429,97
701,493	4168,06
701,894	4264,42
702,294	4244,65
702,695	4333,6
703,096	4138,41
703,496	4254,54
703,896	4190,29
704,297	4145,82
704,697	4096,4
705,097	4012,39
705,497	4081,58
705,897	3955,56
706,297	4022,27
706,697	4140,88
707,097	3906,14
707,497	3856,73
707,897	3782,6
708,297	3832,02
708,696	3787,54
709,096	3832,02
709,495	3703,53
709,895	3691,18
710,294	3666,47
710,694	3668,94
711,093	3760,36
711,492	3735,65
711,891	3557,75
712,29	3589,87
712,689	3486,09
713,088	3567,63
713,487	3461,39
713,886	3402,09
714,285	3407,03
714,684	3355,14
715,082	3500,92
715,481	3500,92
715,879	3431,74
716,278	3290,9
716,676	3226,65
717,075	3239,01
717,473	3243,95
717,871	3263,72
718,269	3283,48
718,667	3276,07
719,065	3206,89
719,463	3209,36
719,861	3145,11
720,259	3056,16
720,657	3132,76
721,054	3038,87
721,452	3127,82
721,85	3056,16
722,247	3036,4
722,645	3001,8
723,042	2999,33
723,439	2949,92
723,837	2967,21
724,234	2883,2
724,631	2959,8
725,028	2875,79
725,425	2821,43
725,822	2784,37
726,219	2747,3
726,616	2742,36
727,012	2784,37
727,409	2841,2
727,806	2702,83
728,202	2685,53
728,599	2742,36
728,995	2732,48
729,392	2653,41
729,788	2643,53
730,184	2643,53
730,58	2707,77
730,977	2722,59
731,373	2569,4
731,769	2643,53
732,165	2515,04
732,56	2507,63
732,956	2579,28
733,352	2502,69
733,748	2529,87
734,143	2529,87
734,539	2559,52
734,934	2542,22
735,33	2453,27
735,725	2522,45
736,12	2448,33
736,516	2423,62
736,911	2482,92
737,306	2423,62
737,701	2354,43
738,096	2381,61
738,491	2305,02
738,886	2324,78
739,28	2221,01
739,675	2354,43
740,07	2339,61
740,464	2339,61
740,859	2364,32
741,253	2356,91
741,648	2240,77
742,042	2287,72
742,437	2287,72
742,831	2206,18
743,225	2213,59
743,619	2282,78
744,013	2253,13
744,407	2174,06
744,801	2181,47
745,195	2216,07
745,588	2235,83
745,982	2230,89
746,376	2225,95
746,769	2124,64
747,163	2166,65
747,556	2117,23
747,95	2090,05
748,343	2087,58
748,736	2201,24
749,13	2077,7
749,523	2018,4
749,916	2144,41
750,309	1949,21
750,702	1941,8
751,095	2127,11
751,487	2013,45
751,88	1964,04
752,273	1973,92
752,665	1946,74
753,058	1968,98
753,45	2080,17
753,843	1986,27
754,235	1867,67
754,627	2038,16
755,02	2018,4
755,412	1946,74
755,804	1944,27
756,196	2067,81
756,588	1973,92
756,98	2018,4
757,372	1973,92
757,764	2149,35
758,155	2107,35
758,547	2050,52
758,938	2107,35
759,33	2198,77
759,721	2085,11
760,113	2240,77
760,504	2282,78
760,895	2250,66
761,287	2307,49
761,678	2379,14
762,069	2480,45
762,46	2542,22
762,851	2618,82
763,242	2613,88
763,632	2688
764,023	2690,47
764,414	2725,07
764,804	2769,54
765,195	2811,55
765,586	2863,43
765,976	2883,2
766,366	2826,37
766,757	2700,36
767,147	2628,7
767,537	2673,18
767,927	2554,58
768,317	2527,4
768,707	2596,58
769,097	2290,19
769,487	2159,24
769,877	2223,48
770,266	2070,28
770,656	2001,1
771,045	2010,98
771,435	2001,1
771,824	1924,5
772,214	1887,44
772,603	1966,51
772,992	2006,04
773,382	1976,39
773,771	1961,57
774,16	2146,88
774,549	2171,59
774,938	2141,94
775,327	2191,36
775,715	2238,3
776,104	2201,24
776,493	2228,42
776,881	2169,12
777,27	2253,13
777,658	2055,46
778,047	1936,86
778,435	1922,03
778,823	1867,67
779,212	1909,68
779,6	1845,43
779,988	1929,44
780,376	1857,79
780,764	1835,55
781,152	1875,08
781,539	1951,68
781,927	1968,98
782,315	1924,5
782,702	2025,81
783,09	1971,45
783,477	1966,51
783,865	1964,04
784,252	1996,16
784,64	2038,16
785,027	1986,27
785,414	1998,63
785,801	1902,26
786,188	1835,55
786,575	1766,37
786,962	1766,37
787,349	1702,12
787,736	1689,77
788,122	1620,58
788,509	1561,28
788,895	1620,58
789,282	1642,82
789,668	1697,18
790,055	1736,72
790,441	1667,53
790,827	1731,77
791,213	1687,3
791,6	1665,06
791,986	1655,18
792,372	1645,29
792,757	1707,07
793,143	1679,89
793,529	1694,71
793,915	1709,54
794,3	1655,18
794,686	1813,31
795,072	1875,08
795,457	1808,37
795,842	1875,08
796,228	1922,03
796,613	2020,87
796,998	2124,64
797,383	2235,83
797,768	2351,96
798,153	2416,21
798,538	2653,41
798,923	2566,93
799,308	2843,67
799,692	2848,61
800,077	2915,32
800,462	2890,61
800,846	2935,09
801,231	2836,25
801,615	2794,25
801,999	2779,42
802,384	2613,88
802,768	2626,23
803,152	2670,71
803,536	2475,51
803,92	2458,21
804,304	2361,85
804,688	2272,9
805,072	2221,01
805,455	2277,84
805,839	2198,77
806,223	2052,99
806,606	2201,24
806,99	2129,58
807,373	2218,54
807,756	2124,64
808,139	2119,7
808,523	2119,7
808,906	2045,58
809,289	2075,23
809,672	2146,88
810,055	2094,99
810,438	2134,53
810,82	2122,17
811,203	2117,23
811,586	2146,88
811,968	2186,41
812,351	2137
812,733	2144,41
813,116	2132,06
813,498	2067,81
813,88	2132,06
814,263	2201,24
814,645	2146,88
815,027	2134,53
815,409	2245,72
815,791	2223,48
816,172	2258,07
816,554	2186,41
816,936	2374,2
817,318	2255,6
817,699	2191,36
818,081	2179
818,462	2176,53
818,844	2245,72
819,225	2270,42
819,606	2263,01
819,987	2243,25
820,368	2240,77
820,749	2216,07
821,13	2223,48
821,511	2112,29
821,892	2087,58
822,273	2119,7
822,654	2097,46
823,034	2117,23
823,415	2129,58
823,795	2092,52
824,176	2075,23
824,556	2062,87
824,937	2067,81
825,317	1907,21
825,697	2001,1
826,077	1983,8
826,457	2010,98
826,837	2008,51
827,217	1934,39
827,597	1877,56
827,977	1936,86
828,356	2025,81
828,736	1860,26
829,116	1867,67
829,495	1830,61
829,874	1830,61
830,254	1830,61
830,633	1865,2
831,012	1924,5
831,392	1889,91
831,771	1850,38
832,15	1855,32
832,529	1828,14
832,908	1877,56
833,286	1934,39
833,665	1870,14
834,044	1808,37
834,422	1855,32
834,801	1924,5
835,179	1842,96
835,558	1850,38
835,936	1805,9
836,314	1946,74
836,693	1922,03
837,071	1847,91
837,449	1889,91
837,827	1926,97
838,205	1840,49
838,583	2015,92
838,961	1894,85
839,338	1865,2
839,716	1899,79
840,094	2013,45
840,471	1939,33
840,849	1887,44
841,226	1986,27
841,603	1939,33
841,981	2015,92
842,358	2057,93
842,735	1968,98
843,112	1964,04
843,489	2003,57
843,866	1993,69
844,243	2018,4
844,62	2003,57
844,996	1991,22
845,373	1951,68
845,749	1798,49
846,126	1924,5
846,502	2045,58
846,879	1926,97
847,255	1912,15
847,631	1924,5
848,008	2094,99
848,384	2057,93
848,76	1964,04
849,136	1897,32
849,512	1941,8
849,887	1909,68
850,263	1949,21
850,639	1946,74
851,014	1889,91
851,39	1833,08
851,765	1865,2
852,141	1924,5
852,516	1835,55
852,892	1761,42
853,267	1768,84
853,642	1724,36
854,017	1744,13
854,392	1768,84
854,767	1746,6
855,142	1672,47
855,517	1709,54
855,891	1694,71
856,266	1702,12
856,641	1694,71
857,015	1702,12
857,39	1672,47
857,764	1536,57
858,138	1618,11
858,513	1541,52
858,887	1588,46
859,261	1514,34
859,635	1516,81
860,009	1625,53
860,383	1479,74
860,757	1551,4
861,13	1519,28
861,504	1487,16
861,878	1422,91
862,251	1546,46
862,625	1474,8
862,998	1462,45
863,372	1477,27
863,745	1464,92
864,118	1432,8
864,491	1375,97
864,864	1390,79
865,237	1427,86
865,61	1316,67
865,983	1415,5
866,356	1390,79
866,729	1413,03
867,101	1413,03
867,474	1410,56
867,846	1351,26
868,219	1363,61
868,591	1371,03
868,964	1252,42
869,336	1324,08
869,708	1284,55
870,08	1277,13
870,452	1274,66
870,824	1259,84
871,196	1188,18
871,568	1217,83
871,94	1138,76
872,311	1277,13
872,683	1170,89
873,055	1212,89
873,426	1094,29
873,797	1207,95
874,169	1193,12
874,54	1156,06
874,911	1254,9
875,282	1165,94
875,654	1198,07
876,025	1131,35
876,395	1168,41
876,766	1128,88
877,137	1168,41
877,508	1128,88
877,878	1111,58
878,249	1084,4
878,62	1138,76
878,99	1242,54
879,36	1207,95
879,731	1096,76
880,101	1101,7
880,471	1099,23
880,841	1121,47
881,211	1163,47
881,581	1163,47
881,951	1161
882,321	1168,41
882,691	1259,84
883,06	1146,18
883,43	1240,07
883,799	1205,48
884,169	1222,77
884,538	1215,36
884,908	1168,41
885,277	1180,77
885,646	1267,25
886,015	1190,65
886,384	1272,19
886,753	1237,6
887,122	1205,48
887,491	1301,84
887,86	1205,48
888,228	1225,24
888,597	1247,48
888,966	1232,66
889,334	1195,59
889,703	1222,77
890,071	1217,83
890,439	1222,77
890,807	1264,78
891,176	1193,12
891,544	1259,84
891,912	1262,31
892,28	1161
892,647	1222,77
893,015	1235,13
893,383	1195,59
893,751	1165,94
894,118	1180,77
894,486	1067,11
894,853	1178,3
895,22	1114,06
895,588	1109,11
895,955	1096,76
896,322	1010,28
896,689	1104,17
897,056	983,1
897,423	1039,93
897,79	1034,99
898,157	1074,52
898,523	983,1
898,89	943,57
899,257	906,5
899,623	958,39
899,99	864,5
900,356	978,16
900,722	859,56
901,089	1002,87
901,455	965,8
901,821	864,5
902,187	926,27
902,553	891,68
902,919	948,51
903,285	829,9
903,65	918,86
904,016	810,14
904,382	926,27
904,747	906,5
905,113	965,8
905,478	891,68
905,843	862,03
906,208	849,67
906,574	874,38
906,939	829,9
907,304	792,84
907,669	896,62
908,034	812,61
908,398	824,96
908,763	931,21
909,128	782,96
909,492	864,5
909,857	817,55
910,221	879,32
910,586	787,9
910,95	827,43
911,314	815,08
911,679	820,02
912,043	822,49
912,407	844,73
912,771	795,31
913,135	795,31
913,498	827,43
913,862	787,9
914,226	745,9
914,589	755,78
914,953	869,44
915,316	859,56
915,68	740,95
916,043	790,37
916,406	834,85
916,77	738,48
917,133	812,61
917,496	763,19
917,859	768,13
918,222	740,95
918,584	800,25
918,947	713,77
919,31	738,48
919,673	676,71
920,035	807,67
920,398	733,54
920,76	758,25
921,122	745,9
921,485	711,3
921,847	721,19
922,209	773,07
922,571	740,95
922,933	696,48
923,295	738,48
923,657	758,25
924,018	684,12
924,38	758,25
924,742	765,66
925,103	661,89
925,465	676,71
925,826	664,36
926,187	632,23
926,549	750,84
926,91	689,07
927,271	647,06
927,632	708,83
927,993	649,53
928,354	708,83
928,715	691,54
929,075	681,65
929,436	721,19
929,797	627,29
930,157	706,36
930,518	644,59
930,878	679,18
931,238	689,07
931,598	617,41
931,959	587,76
932,319	664,36
932,679	671,77
933,039	622,35
933,399	642,12
933,758	696,48
934,118	654,47
934,478	580,35
934,837	629,76
935,197	619,88
935,556	666,83
935,916	614,94
936,275	572,93
936,634	607,53
936,993	577,88
937,353	558,11
937,712	550,7
938,07	619,88
938,429	563,05
938,788	602,58
939,147	612,47
939,506	597,64
939,864	513,63
940,223	550,7
940,581	600,11
940,939	550,7
941,298	553,17
941,656	550,7
942,014	553,17
942,372	518,57
942,73	553,17
943,088	540,81
943,446	493,87
943,804	530,93
944,161	479,04
944,519	545,75
944,877	528,46
945,234	570,46
945,592	533,4
945,949	503,75
946,306	619,88
946,663	538,34
947,021	518,57
947,378	550,7
947,735	516,1
948,091	567,99
948,448	563,05
948,805	508,69
949,162	469,16
949,518	476,57
949,875	508,69
950,231	481,51
950,588	508,69
950,944	518,57
951,3	461,74
951,657	577,88
952,013	483,98
952,369	523,52
952,725	474,1
953,081	464,22
953,436	404,91
953,792	501,28
954,148	565,52
954,503	501,28
954,859	501,28
955,214	456,8
955,57	488,92
955,925	476,57
956,28	429,62
956,635	548,23
956,991	437,04
957,346	464,22
957,701	535,87
958,055	464,22
958,41	528,46
958,765	456,8
959,12	496,34
959,474	506,22
959,829	540,81
960,183	449,39
960,537	511,16
960,892	595,17
961,246	496,34
961,6	459,27
961,954	622,35
962,308	508,69
962,662	535,87
963,016	476,57
963,37	493,87
963,723	481,51
964,077	419,74
964,43	476,57
964,784	466,69
965,137	501,28
965,491	459,27
965,844	553,17
966,197	451,86
966,55	496,34
966,903	523,52
967,256	518,57
967,609	491,4
967,962	449,39
968,315	471,63
968,667	511,16
969,02	459,27
969,372	474,1
969,725	454,33
970,077	439,51
970,429	459,27
970,782	464,22
971,134	521,05
971,486	372,79
971,838	488,92
972,19	483,98
972,542	481,51
972,893	424,68
973,245	449,39
973,597	434,57
973,948	417,27
974,3	419,74
974,651	466,69
975,003	444,45
975,354	511,16
975,705	461,74
976,056	434,57
976,407	456,8
976,758	397,5
977,109	399,97
977,46	429,62
977,811	456,8
978,161	491,4
978,512	446,92
978,862	483,98
979,213	414,8
979,563	412,33
979,913	409,86
980,264	407,39
980,614	451,86
980,964	422,21
981,314	479,04
981,664	464,22
982,014	427,15
982,363	454,33
982,713	345,61
983,063	424,68
983,412	422,21
983,762	466,69
984,111	491,4
984,461	402,44
984,81	461,74
985,159	370,32
985,508	387,62
985,857	395,03
986,206	429,62
986,555	375,26
986,904	409,86
987,253	422,21
987,601	313,49
987,95	444,45
988,298	407,39
988,647	385,15
988,995	459,27
989,343	390,09
989,692	422,21
990,04	402,44
990,388	476,57
990,736	434,57
991,084	429,62
991,432	434,57
991,779	429,62
992,127	387,62
992,475	422,21
992,822	395,03
993,17	412,33
993,517	429,62
993,864	387,62
994,212	355,5
994,559	313,49
994,906	444,45
995,253	340,67
995,6	402,44
995,947	362,91
996,293	399,97
996,64	422,21
996,987	390,09
997,333	399,97
997,68	454,33
998,026	360,44
998,373	409,86
998,719	414,8
999,065	385,15
999,411	432,09
999,757	390,09
1000,103	469,16
1000,449	353,03
1000,795	412,33
1001,141	424,68
1001,486	454,33
1001,832	469,16
1002,177	395,03
1002,523	404,91
1002,868	372,79
1003,213	338,2
1003,559	380,21
1003,904	407,39
1004,249	407,39
1004,594	454,33
1004,939	446,92
1005,283	370,32
1005,628	397,5
1005,973	397,5
1006,318	427,15
1006,662	353,03
1007,007	325,85
1007,351	362,91
1007,695	392,56
1008,039	446,92
1008,384	404,91
1008,728	382,68
1009,072	390,09
1009,416	474,1
1009,759	377,73
1010,103	387,62
1010,447	345,61
1010,791	404,91
1011,134	353,03
1011,478	362,91
1011,821	308,55
1012,164	333,26
1012,508	407,39
1012,851	370,32
1013,194	365,38
1013,537	338,2
1013,88	429,62
1014,223	392,56
1014,565	385,15
1014,908	432,09
1015,251	348,08
1015,593	404,91
1015,936	360,44
1016,278	417,27
1016,621	380,21
1016,963	387,62
1017,305	353,03
1017,647	380,21
1017,989	338,2
1018,331	404,91
1018,673	392,56
1019,015	409,86
1019,356	375,26
1019,698	377,73
1020,04	412,33
1020,381	399,97
1020,723	390,09
1021,064	437,04
1021,405	367,85
1021,746	439,51
1022,088	345,61
1022,429	315,96
1022,77	382,68
1023,11	417,27
1023,451	434,57
1023,792	434,57
1024,133	434,57
